time,ax,ay,az,rollrate,pitchrate,yawrate,latitude,longitude,altitude
82802500,-0.4216,-0.0392,-9.6589,-0.6956,-2.0173,-0.2086,51.044935,13.77761,117.74
82802500,-1.0884,-0.5883,-10.2375,-0.8347,-3.2,-0.2782,51.044935,13.77761,117.74
82802500,-0.9806,-0.3628,-9.5805,-1.0434,-1.5304,-0.2086,51.044938,13.777597,117.74
82802600,-1.5003,-0.5099,-10.0806,-0.5565,-3.1304,-0.1391,51.044938,13.777597,117.77
82802600,-0.9904,-0.7844,-9.7374,-0.8347,-1.7391,0,51.044938,13.777597,117.77
82802600,-0.1863,-0.2745,-9.6785,-0.626,-0.6956,-0.0695,51.044938,13.777597,117.77
82802600,-0.402,-0.451,-9.9629,-1.113,-2.4347,-0.2782,51.044938,13.777597,117.77
82802600,-0.402,-0.3726,-9.453,-1.5304,-2.4347,-0.4869,51.044942,13.777584,117.77
82802700,0.3235,-0.1176,-9.5314,-1.4608,-1.0434,-0.4869,51.044942,13.777584,117.79
82802700,-0.6373,-0.2745,-9.855,-1.3913,-2.5739,-0.4173,51.044942,13.777584,117.79
82802700,-0.9413,-0.3039,-10.2669,-1.8782,-3.2,-0.4173,51.044942,13.777584,117.79
82802700,-0.5687,-0.706,-9.404,-1.9478,-1.6695,-0.3478,51.044942,13.777584,117.79
82802700,-1.3042,-0.6079,-9.7864,-2.3652,-2.9217,-0.2782,51.044945,13.777571,117.79
82802800,-1.6474,-0.4608,-9.7276,-1.8782,-2.713,-0.1391,51.044945,13.777571,117.79
82802800,-0.3922,-0.4216,-9.7079,-1.3913,-2.2956,-0.1391,51.044945,13.777571,117.79
82802800,-0.4903,-0.2451,-9.6981,-0.9043,-1.0434,0,51.044945,13.777571,117.79
82802800,-0.3432,-0.2843,-10.6984,-0.9043,-2.8521,-0.0695,51.044945,13.777571,117.79
82802800,-0.1274,-0.2451,-9.3745,-0.7652,-2.0869,-0.4173,51.044948,13.777558,117.79
82802900,-0.0294,0.1863,-10.159,-0.5565,-2.0869,-0.5565,51.044948,13.777558,117.79
82802900,-0.2843,0.1667,-9.1392,-0.2086,-2.4347,-0.2782,51.044948,13.777558,117.79
82802900,-1.2257,-0.5687,-10.4826,-0.9043,-4.3826,-0.4173,51.044948,13.777558,117.79
82802900,-0.7256,-1.1178,-9.757,-1.6695,-2.2956,-0.2782,51.044948,13.777558,117.79
82802900,-1.1276,-0.7158,-9.1,-2.0173,-2.226,-0.4173,51.044951,13.777545,117.79
82803000,-1.5591,-0.5785,-9.4432,-1.6,-2.8521,-0.2086,51.044951,13.777545,117.79
82803000,-0.8923,-0.0588,-9.4922,-1.9478,-2.2956,-0.1391,51.044951,13.777545,117.79
82803000,-0.1372,-0.2353,-9.4334,-1.3217,-0.9739,-0.2782,51.044951,13.777545,117.79
82803000,-0.6766,-0.4412,-10.1982,-1.113,-2.3652,-0.2086,51.044951,13.777545,117.79
82803000,-0.6766,0.147,-9.502,-1.3217,-2.8521,-0.3478,51.044953,13.777531,117.79
82803100,0.1765,0.2745,-9.5608,-1.1826,-1.1826,-0.4869,51.044953,13.777531,117.79
82803100,-0.2353,0.2059,-10.4238,-0.8347,-2.5043,-0.4173,51.044953,13.777531,117.79
82803100,-0.4706,-0.5589,-9.5608,-0.6956,-2.2956,-0.2782,51.044953,13.777531,117.79
82803100,-1.1473,-0.451,-10.2473,-1.2521,-2.9913,-0.2782,51.044953,13.777531,117.79
82803100,-0.8433,-0.6079,-9.9335,-1.113,-1.3913,-0.1391,51.044957,13.777518,117.79
82803200,-0.8531,-0.7158,-9.0607,-0.626,-1.6,-0.1391,51.044957,13.777518,117.74
82803200,-1.3728,-0.4608,-10.0806,-1.113,-2.1565,-0.1391,51.044957,13.777518,117.74
82803200,-0.5197,-0.2745,-10.5022,-0.7652,-1.7391,-0.2086,51.044957,13.777518,117.74
82803200,-0.147,-0.2745,-10.1296,-1.3913,-1.3913,0,51.044957,13.777518,117.74
82803200,-0.6766,-0.1078,-9.9237,-1.9478,-2.6434,-0.1391,51.04496,13.777505,117.74
82803300,-0.8629,-0.0098,-9.7962,-1.9478,-2.9217,-0.4869,51.04496,13.777505,117.71
82803300,-0.1667,0.1274,-9.6981,-1.3217,-1.9478,-0.5565,51.04496,13.777505,117.71
82803300,0.3235,0.2451,-9.5216,-1.3913,-1.9478,-0.4173,51.04496,13.777505,117.71
82803300,-0.4118,-0.5491,-9.3059,-1.113,-2.5043,-0.4173,51.04496,13.777505,117.71
82803300,-1.108,-0.6079,-10.0119,-1.3217,-3.826,-0.4173,51.044963,13.777492,117.71
82803400,-0.7256,-0.7158,-9.2667,-1.6695,-2.0173,-0.4173,51.044963,13.777492,117.68
82803400,-0.6471,-0.7158,-9.4922,-1.6,-2.1565,-0.1391,51.044963,13.777492,117.68
82803400,-1.3434,-0.3824,-10.414,-1.2521,-2.713,-0.1391,51.044963,13.777492,117.68
82803400,-0.9315,-0.4706,-9.7668,-1.3217,-2.0869,-0.1391,51.044963,13.777492,117.68
82803400,-0.5197,0.3137,-9.9335,-1.4608,-0.4173,-0.1391,51.044966,13.777479,117.68
82803500,-0.4216,-0.0784,-10.1002,-1.6,-1.1826,0,51.044966,13.777479,117.65
82803500,-1.0982,-0.3824,-10.0119,-1.2521,-2.2956,-0.2782,51.044966,13.777479,117.65
82803500,0.0882,-0.2451,-9.806,-1.1826,-3.1304,-0.2086,51.044966,13.777479,117.65
82803500,0.2157,0.098,-9.5412,-0.9739,-1.6695,-0.2782,51.044966,13.777479,117.65
82803500,0.2255,-0.098,-9.9727,-0.7652,-2.1565,-0.4173,51.044969,13.777466,117.65
82803600,-1.2061,-0.5001,-10.2767,-0.1391,-3.5478,-0.2086,51.044969,13.777466,117.64
82803600,-0.8727,-0.2255,-9.2667,-0.626,-3.2695,-0.4173,51.044969,13.777466,117.64
82803600,-0.6275,-0.5393,-10.2571,-0.8347,-2.9913,-0.4173,51.044969,13.777466,117.64
82803600,-0.2157,-0.5393,-9.0019,-0.9043,-1.113,-0.2086,51.044969,13.777466,117.64
82803600,-1.5591,-0.6373,-10.5611,-0.9043,-3.4782,-0.2086,51.044972,13.777453,117.64
82803700,-1.4022,-0.5589,-9.2863,-1.113,-2.5739,0,51.044972,13.777453,117.61
82803700,-0.9707,-0.2059,-10.7964,-0.9739,-3.6173,0,51.044972,13.777453,117.61
82803700,-0.3726,-0.1765,-9.2961,-1.113,-1.4608,-0.1391,51.044972,13.777453,117.61
82803700,-1.1375,-0.2255,-10.9043,-1.4608,-2.9913,0,51.044972,13.777453,117.61
82803700,-1.6768,-0.1568,-10.4434,-1.3913,-3.6173,-0.1391,51.044975,13.77744,117.61
82803800,-0.6177,0.0098,-9.1098,-1.1826,-1.3913,-0.2086,51.044975,13.77744,117.61
82803800,-0.049,0.2353,-9.0902,-1.0434,-1.1826,-0.3478,51.044975,13.77744,117.61
82803800,-0.4118,-0.1961,-9.6295,-1.113,-1.113,-0.3478,51.044975,13.77744,117.61
82803800,-0.1568,-0.3726,-9.198,-0.9739,-1.1826,-0.4173,51.044975,13.77744,117.61
82803800,-1.0688,-0.5001,-10.3944,-1.1826,-3.0608,-0.3478,51.044979,13.777426,117.61
82803900,-0.2353,-0.3628,-8.2861,-1.2521,-0.4173,-0.3478,51.044979,13.777426,117.6
82803900,-0.4314,-0.6471,-9.7766,-0.6956,-0.3478,-0.4869,51.044979,13.777426,117.6
82803900,-0.8923,-0.7256,-9.8844,-0.9739,-0.2086,-0.2782,51.044979,13.777426,117.6
82803900,-1.3042,-0.402,-9.9433,-1.3217,-1.5304,-0.4869,51.044979,13.777426,117.6
82803900,-1.7062,-0.7648,-11.3357,-1.8782,-2.4347,-0.2086,51.044982,13.777413,117.6
82804000,-0.7452,-0.3922,-8.9333,-2.2956,-0.0695,-0.0695,51.044982,13.777413,117.59
82804000,-0.5197,-0.5883,-10.0315,-3.2,-0.8347,0,51.044982,13.777413,117.59
82804000,-0.5491,-0.1568,-10.7474,-2.713,-2.226,-0.0695,51.044982,13.777413,117.59
82804000,-1.6179,0.2157,-11.5711,-2.0173,-3.5478,-0.2086,51.044982,13.777413,117.59
82804000,-0.2843,-0.3137,-10.4924,-2.0173,-2.713,0,51.044985,13.7774,117.59
82804100,0.2353,0.0882,-8.8842,-1.3217,-0.9043,-0.4173,51.044985,13.7774,117.57
82804100,-0.4314,0.2059,-9.7374,-0.626,-3.2,-0.626,51.044985,13.7774,117.57
82804100,-0.5295,-0.0882,-9.4432,-0.626,-3.7565,-0.5565,51.044985,13.7774,117.57
82804100,-0.2059,-0.3432,-10.5513,-0.4869,-4.2434,-0.4869,51.044985,13.7774,117.57
82804100,-0.0588,-0.9217,-9.0117,-0.9739,-4.5913,-0.5565,51.044989,13.777386,117.57
82804200,-0.5883,-0.6864,-10.0021,-1.6,-4.5913,-0.4173,51.044989,13.777386,117.55
82804200,-0.3137,-0.2353,-8.9921,-1.9478,-2.8521,-0.2086,51.044989,13.777386,117.55
82804200,-0.1274,-0.6962,-10.8651,-1.6,-3.3391,-0.5565,51.044989,13.777386,117.55
82804200,-1.1571,-0.4706,-9.7079,-1.9478,-3.0608,-0.2782,51.044989,13.777386,117.55
82804200,-1.6278,0.0294,-9.855,-1.8086,-4.1043,-0.4869,51.044992,13.777373,117.55
82804300,-1.2943,0.0882,-9.8158,-2.4347,-3.0608,-0.3478,51.044992,13.777373,117.54
82804300,-1.7062,-0.2549,-10.4042,-1.6695,-2.5739,-0.2086,51.044992,13.777373,117.54
82804300,-0.9315,-0.0294,-9.3157,-2.6434,-1.3913,0.2086,51.044992,13.777373,117.54
82804300,-1.2061,-0.3628,-10.3944,-1.6695,-2.3652,0.2086,51.044992,13.777373,117.54
82804300,-1.7454,0.0588,-10.7964,-2.5739,-3.4086,0.6956,51.044996,13.77736,117.54
82804400,-1.8631,-0.098,-10.5218,-1.7391,-3.4086,0.3478,51.044996,13.77736,117.52
82804400,-0.3235,-0.402,-8.7175,-1.5304,-0.5565,0.2782,51.044996,13.77736,117.52
82804400,0.0588,-0.5589,-8.7568,-1.0434,-0.9043,0.0695,51.044996,13.77736,117.52
82804400,-0.3432,0.1176,-10.0413,-1.2521,-1.3913,-0.1391,51.044996,13.77736,117.52
82804400,-0.6962,-0.6177,-10.2375,-0.6956,-2.9217,-0.0695,51.044999,13.777346,117.52
82804500,-0.4412,-0.4706,-9.2274,-0.9043,-2.226,-0.2782,51.044999,13.777346,117.51
82804500,-1.0296,-0.8727,-10.1296,0.1391,-3.3391,-0.4173,51.044999,13.777346,117.51
82804500,-0.6766,-0.5197,-8.7077,-1.0434,-1.4608,-0.1391,51.044999,13.777346,117.51
82804500,-0.2353,-0.5295,-9.2667,-0.4869,-1.4608,-0.2086,51.044999,13.777346,117.51
82804500,-0.5295,-0.5981,-9.0215,-0.626,-0.9739,-0.4173,51.045002,13.777333,117.51
82804600,-0.9119,-0.5393,-8.7175,-0.7652,-0.8347,-0.1391,51.045002,13.777333,117.49
82804600,-1.3238,-0.6668,-9.6785,-0.9739,-1.5304,0.1391,51.045002,13.777333,117.49
82804600,-1.1767,-0.3824,-9.7962,-1.3913,-1.4608,0.1391,51.045002,13.777333,117.49
82804600,-1.108,-0.0294,-10.0315,-0.9043,-0.5565,0.1391,51.045002,13.777333,117.49
82804600,-1.3826,0.0784,-9.6687,-1.5304,-0.6956,0.0695,51.045006,13.777319,117.49
82804700,-1.2159,-0.2059,-10.3159,-1.1826,-0.8347,0.2782,51.045006,13.777319,117.47
82804700,-0.8139,0.0196,-9.404,-1.0434,-0.4173,0.0695,51.045006,13.777319,117.47
82804700,-0.8727,-0.1568,-10.3551,-1.2521,-0.9739,0.0695,51.045006,13.777319,117.47
82804700,-1.3238,-0.0882,-10.4238,-1.6,-2.226,0.2086,51.045006,13.777319,117.47
82804700,-1.1571,0.0588,-10.2375,-1.3913,-2.4347,0.1391,51.045009,13.777306,117.47
82804800,-1.2747,0.0098,-9.9237,-1.3217,-2.4347,0.2782,51.045009,13.777306,117.45
82804800,-1.3042,-0.1863,-10.1002,-1.7391,-2.5043,0.2086,51.045009,13.777306,117.45
82804800,-0.7354,-0.0294,-9.5903,-1.1826,-2.0869,0.3478,51.045009,13.777306,117.45
82804800,-0.6864,-0.3039,-9.1784,-0.626,-2.2956,0.2782,51.045009,13.777306,117.45
82804800,-1.108,-0.7648,-9.4628,-0.8347,-2.6434,0.0695,51.045012,13.777292,117.45
82804900,-0.4608,-0.4903,-9.2471,-1.6695,-2.2956,0,51.045012,13.777292,117.45
82804900,-0.5197,-0.3922,-9.0902,-1.113,-2.3652,0.0695,51.045012,13.777292,117.45
82804900,-0.6668,-0.5981,-9.6197,-0.9043,-2.0869,-0.2086,51.045012,13.777292,117.45
82804900,-1.0002,-0.4903,-9.7668,-0.6956,-2.9217,-0.0695,51.045012,13.777292,117.45
82804900,-0.5393,-0.6373,-9.1392,-0.3478,-1.8782,-0.2782,51.045016,13.777278,117.45
82805000,-0.706,-0.3039,-8.8352,-0.1391,-2.226,-0.1391,51.045016,13.777278,117.43
82805000,-0.4706,-0.3824,-10.1394,0.2086,-2.2956,-0.0695,51.045016,13.777278,117.43
82805000,-0.4706,-0.9119,-9.6687,-0.3478,-1.8782,0,51.045016,13.777278,117.43
82805000,-0.5785,-0.7746,-9.1392,-0.5565,-2.0173,0.2086,51.045016,13.777278,117.43
82805000,-1.0296,-0.7256,-9.3647,-0.4869,-2.0173,0,51.045019,13.777264,117.43
82805100,-0.402,-0.6373,-9.1,-0.3478,-1.1826,0.0695,51.045019,13.777264,117.41
82805100,-0.6373,-0.4903,-9.5216,-0.6956,-1.5304,0.1391,51.045019,13.777264,117.41
82805100,-0.4608,-0.402,-9.6589,-0.9043,-1.7391,-0.0695,51.045019,13.777264,117.41
82805100,-0.4903,-0.7746,-9.2765,-0.7652,-1.8782,-0.0695,51.045019,13.777264,117.41
82805100,-0.6962,-0.4216,-8.8842,-1.1826,-1.5304,-0.0695,51.045023,13.77725,117.41
82805200,-0.7746,-0.402,-9.7962,-1.0434,-2.5739,-0.0695,51.045023,13.77725,117.39
82805200,-1.0884,-0.5687,-9.6197,-1.1826,-1.6,-0.0695,51.045023,13.77725,117.39
82805200,-0.6766,-0.2647,-10.0021,-1.0434,-1.9478,0.3478,51.045023,13.77725,117.39
82805200,-1.2257,-0.5099,-9.9923,-0.9043,-2.9913,0.2086,51.045023,13.77725,117.39
82805200,-1.0688,-0.6373,-9.1,-1.2521,-2.0173,0.1391,51.045027,13.777236,117.39
82805300,-0.5001,-0.098,-8.7273,-1.3217,-1.6,0,51.045027,13.777236,117.38
82805300,-1.1963,-0.402,-10.1492,-1.3217,-2.6434,0.2086,51.045027,13.777236,117.38
82805300,-1.1865,0,-10.1786,-1.3217,-2.226,0,51.045027,13.777236,117.38
82805300,-1.108,0,-9.8746,-1.3217,-1.8782,0,51.045027,13.777236,117.38
82805300,-1.3434,-0.2059,-9.7177,-1.3913,-2.3652,0,51.04503,13.777222,117.38
82805400,-0.9904,-0.2255,-9.2961,-1.2521,-1.3913,-0.1391,51.04503,13.777222,117.36
82805400,-1.0786,-0.0294,-10.3748,-1.4608,-1.8782,0.0695,51.04503,13.777222,117.36
82805400,-0.8139,0.0784,-9.9139,-1.0434,-1.4608,0.1391,51.04503,13.777222,117.36
82805400,-1.1276,-0.0686,-10.0708,-1.7391,-1.8782,0.0695,51.04503,13.777222,117.36
82805400,-1.4611,0.1372,-10.3649,-1.6,-2.1565,0.0695,51.045033,13.777208,117.36
82805500,-1.3434,0.098,-10.0315,-1.8782,-1.6,0.1391,51.045033,13.777208,117.35
82805500,-0.6864,-0.049,-9.2569,-1.9478,-1.1826,0.1391,51.045033,13.777208,117.35
82805500,-1.3826,-0.3235,-10.4336,-1.0434,-2.7826,-0.0695,51.045033,13.777208,117.35
82805500,-1.2355,0.0882,-9.7079,-2.0869,-1.5304,0.1391,51.045033,13.777208,117.35
82805500,-1.2061,0.1078,-10.5022,-1.3913,-2.0173,0.2782,51.045037,13.777194,117.35
82805600,-1.2257,0.2255,-9.5314,-1.0434,-0.9043,0.0695,51.045037,13.777194,117.35
82805600,-0.6177,0.1176,-10.1688,-0.9739,-1.113,0.1391,51.045037,13.777194,117.35
82805600,-0.7158,-0.2451,-9.5412,-1.3913,-0.9043,0.1391,51.045037,13.777194,117.35
82805600,-0.7942,-0.147,-9.4824,-1.113,-1.4608,0.2782,51.045037,13.777194,117.35
82805600,-1.2453,-0.1961,-9.757,-0.9739,-1.3913,0.3478,51.045041,13.777179,117.35
82805700,-0.8237,-0.1961,-9.3353,-0.6956,-1.113,0.0695,51.045041,13.777179,117.34
82805700,-0.2255,-0.0882,-9.6393,-1.0434,-0.9043,0.2086,51.045041,13.777179,117.34
82805700,-0.8727,-0.1667,-9.7668,-1.0434,-1.0434,0.0695,51.045041,13.777179,117.34
82805700,-0.6864,0.1372,-9.806,-0.3478,-1.3217,0.0695,51.045041,13.777179,117.34
82805700,-0.2353,-0.2843,-9.2176,-0.9739,-0.9043,-0.0695,51.045044,13.777165,117.34
82805800,-0.5687,-0.2059,-9.7177,-0.7652,-1.3913,0.0695,51.045044,13.777165,117.34
82805800,-0.8433,0.5393,-8.237,0,-1.1826,-0.1391,51.045044,13.777165,117.34
82805800,0.3137,0.0784,-8.1292,1.2521,-0.626,-0.1391,51.045044,13.777165,117.34
82805800,0.353,-0.402,-10.7572,1.1826,-0.9043,-0.2782,51.045044,13.777165,117.34
82805800,-0.3726,-1.0982,-10.5218,-0.8347,-2.5043,-0.0695,51.045048,13.77715,117.34
82805900,-0.5589,-1.1767,-8.9136,-1.9478,-2.4347,0.2782,51.045048,13.77715,117.34
82805900,-1.0394,-0.2451,-7.9429,-1.6,-1.9478,0.3478,51.045048,13.77715,117.34
82805900,-1.0688,-0.6177,-11.022,-1.8782,-3.4086,0.3478,51.045048,13.77715,117.34
82805900,-0.0294,-0.1078,-9.3451,-1.6695,-2.3652,0.0695,51.045048,13.77715,117.34
82805900,-0.8629,-0.0392,-9.9335,-1.3913,-4.1043,0.1391,51.045052,13.777135,117.34
82806000,-2.2848,-1.5591,-10.4336,-1.6,-4.5217,0,51.045052,13.777135,117.34
82806000,-1.1473,0,-9.5412,-0.9043,-3.5478,0.1391,51.045052,13.777135,117.34
82806000,-1.3728,-0.2255,-8.8646,-1.113,-2.5739,0.0695,51.045052,13.777135,117.34
82806000,-0.1078,0.3235,-10.1296,-0.5565,-3.6173,0.2782,51.045052,13.777135,117.34
82806000,-0.4314,-0.0588,-9.2176,0.1391,-3.4086,0.4869,51.045055,13.777121,117.34
82806100,-0.6668,-0.0882,-9.0215,-0.4173,-2.9217,0.0695,51.045055,13.777121,117.33
82806100,-2.02,-1.1963,-9.8648,-0.9043,-3.2,0.1391,51.045055,13.777121,117.33
82806100,-1.6768,-0.5589,-9.6197,-1.9478,-1.4608,0,51.045055,13.777121,117.33
82806100,-0.098,-0.5589,-8.8744,-0.626,-1.3217,0,51.045055,13.777121,117.33
82806100,-1.9121,-0.7158,-9.9433,-0.9043,-3.1304,-0.2086,51.045059,13.777106,117.33
82806200,-1.9121,-1.5297,-9.6883,-2.6434,-1.3913,0.0695,51.045059,13.777106,117.33
82806200,-0.7648,-1.0198,-10.3355,-2.4347,-2.0869,0.2086,51.045059,13.777106,117.33
82806200,-1.5395,-1.2943,-9.9237,-2.7826,-2.1565,0.4173,51.045059,13.777106,117.33
82806200,-0.5687,-0.4804,-10.2669,-1.3217,-2.7826,0.3478,51.045059,13.777106,117.33
82806200,-1.9121,-0.8727,-9.8844,-2.7826,-2.5043,0.5565,51.045063,13.777091,117.33
82806300,-0.9315,-0.1274,-10.3944,-3.3391,-1.1826,0.4869,51.045063,13.777091,117.32
82806300,-1.4709,0.2745,-10.0806,-2.3652,-1.8782,0.3478,51.045063,13.777091,117.32
82806300,-0.1372,-0.2059,-9.7472,-1.5304,-0.5565,0.4173,51.045063,13.777091,117.32
82806300,-0.804,0.147,-9.9237,-1.2521,-0.5565,0.4173,51.045063,13.777091,117.32
82806300,-0.402,0.4608,-10.5807,-2.2956,-0.5565,0.626,51.045067,13.777077,117.32
82806400,-1.1276,-0.0392,-10.1002,-1.6695,-1.5304,0.4173,51.045067,13.777077,117.31
82806400,-0.3628,-0.2353,-9.0411,-1.1826,-0.5565,0.626,51.045067,13.777077,117.31
82806400,-0.049,-0.706,-8.8352,-0.7652,-0.9739,0.5565,51.045067,13.777077,117.31
82806400,-0.5001,-0.1961,-9.1686,-0.626,-0.8347,0.5565,51.045067,13.777077,117.31
82806400,-0.0294,-0.2059,-9.0313,-0.5565,-1.0434,0.4173,51.04507,13.777062,117.31
82806500,-0.3922,-0.0588,-9.453,-0.2086,-1.6695,0.3478,51.04507,13.777062,117.3
82806500,-0.5589,-0.147,-9.7177,-0.2782,-1.7391,0.5565,51.04507,13.777062,117.3
82806500,-0.8531,-0.0392,-9.7177,0.2086,-2.3652,0.4173,51.04507,13.777062,117.3
82806500,-0.8335,-0.4412,-9.3647,0.2086,-2.713,0.626,51.04507,13.777062,117.3
82806500,-1.2061,-0.5589,-9.3353,0.1391,-2.5043,0.6956,51.045074,13.777047,117.3
82806600,-0.9315,-0.8433,-9.4236,-0.3478,-2.0869,0.5565,51.045074,13.777047,117.3
82806600,-1.3826,-1.0296,-9.9531,-0.9043,-3.2,0.6956,51.045074,13.777047,117.3
82806600,-1.3924,-0.5687,-9.198,-1.113,-1.113,0.8347,51.045074,13.777047,117.3
82806600,-1.2453,-0.5687,-10.5611,-0.5565,-2.9913,0.6956,51.045074,13.777047,117.3
82806600,-1.0002,-0.9806,-9.8844,-1.3913,-2.0869,0.7652,51.045079,13.777032,117.3
82806700,-1.1963,-0.7942,-10.6493,-1.4608,-3.1304,0.9043,51.045079,13.777032,117.3
82806700,-1.5591,-0.9217,-10.2865,-0.6956,-2.7826,0.7652,51.045079,13.777032,117.3
82806700,-0.5883,-0.3628,-9.8648,-1.113,-2.5043,0.7652,51.045079,13.777032,117.3
82806700,-0.8531,-0.1961,-9.8844,-1.3217,-2.226,0.6956,51.045079,13.777032,117.3
82806700,-0.5393,-0.5785,-9.6589,-1.2521,-1.4608,0.626,51.045082,13.777017,117.3
82806800,-0.4608,-0.5883,-9.6589,-1.2521,-1.1826,0.7652,51.045082,13.777017,117.3
82806800,-0.2941,-0.4706,-9.6099,-1.3217,-1.4608,0.7652,51.045082,13.777017,117.3
82806800,-0.706,-0.4804,-9.1784,-1.6695,-1.0434,0.7652,51.045082,13.777017,117.3
82806800,-0.755,-0.0392,-9.3353,-1.113,-1.2521,0.6956,51.045082,13.777017,117.3
82806800,-1.1571,-0.2745,-9.3843,-0.3478,-2.2956,0.626,51.045086,13.777002,117.3
82806900,-1.0786,-0.4608,-9.2667,-0.5565,-1.6695,0.5565,51.045086,13.777002,117.24
82806900,-1.0198,-0.3137,-9.4726,-0.0695,-2.5739,0.5565,51.045086,13.777002,117.24
82806900,-1.3826,-0.5883,-9.7766,-0.5565,-2.5043,0.4869,51.045086,13.777002,117.24
82806900,-1.1178,-0.8727,-9.8746,-0.8347,-2.3652,0.6956,51.045086,13.777002,117.24
82806900,-1.0296,-0.8237,-10.2375,-1.1826,-2.9217,0.626,51.04509,13.776987,117.24
82807000,-1.314,-0.9119,-10.0315,-1.5304,-3.2695,0.7652,51.04509,13.776987,117.27
82807000,-0.7746,-0.6177,-10.3453,-1.8086,-2.8521,0.8347,51.04509,13.776987,117.27
82807000,-1.5199,-0.5197,-11.0612,-1.7391,-3.8956,0.8347,51.04509,13.776987,117.27
82807000,-0.6962,-0.4314,-10.5709,-2.226,-2.713,0.8347,51.04509,13.776987,117.27
82807000,-0.3334,-0.402,-9.4922,-1.2521,-2.3652,0.4869,51.045093,13.776971,117.27
82807100,-0.5785,-0.6275,-9.6393,-1.3913,-2.1565,0.6956,51.045093,13.776971,117.25
82807100,-0.3628,-0.5687,-9.6785,-1.3913,-2.2956,0.7652,51.045093,13.776971,117.25
82807100,-0.8923,-0.0294,-10.0806,-0.8347,-2.4347,0.8347,51.045093,13.776971,117.25
82807100,-0.7648,-0.5785,-8.7666,-1.1826,-2.1565,0.6956,51.045093,13.776971,117.25
82807100,-1.0884,-0.3235,-10.0021,-1.3913,-1.6695,0.9739,51.045097,13.776956,117.25
82807200,-1.5101,-0.3824,-9.6589,-1.113,-2.4347,0.9739,51.045097,13.776956,117.23
82807200,-1.412,-0.8335,-9.0509,-1.0434,-1.7391,1.113,51.045097,13.776956,117.23
82807200,-1.5591,-0.4216,-9.2372,-0.7652,-1.7391,0.9739,51.045097,13.776956,117.23
82807200,-1.1178,-0.657,-9.4922,-0.7652,-1.9478,0.9043,51.045097,13.776956,117.23
82807200,-0.8139,-0.2255,-9.5216,-0.7652,-2.0173,0.8347,51.045101,13.77694,117.23
82807300,-0.8531,-0.5099,-9.7374,-0.9043,-1.4608,0.626,51.045101,13.77694,117.2
82807300,-0.6373,-1.0786,-9.1784,-1.8086,-1.1826,0.9739,51.045101,13.77694,117.2
82807300,-0.8531,-0.4706,-10.2277,-1.7391,-0.9043,0.9739,51.045101,13.77694,117.2
82807300,-0.0196,0.0784,-9.0215,-1.3913,-0.2782,0.8347,51.045101,13.77694,117.2
82807300,-0.3039,-0.402,-9.8158,-1.3913,-1.6695,0.9739,51.045104,13.776925,117.2
82807400,-0.9904,0.098,-10.1884,-1.0434,-1.5304,0.7652,51.045104,13.776925,117.19
82807400,-1.9023,-0.4903,-10.159,-0.626,-1.6,0.8347,51.045104,13.776925,117.19
82807400,-1.2649,-0.8237,-9.5707,-1.7391,-1.5304,0.9043,51.045104,13.776925,117.19
82807400,-0.5589,-0.6668,-9.3451,-0.626,-1.1826,0.5565,51.045104,13.776925,117.19
82807400,-0.9511,-0.7158,-9.9237,-0.9739,-2.5739,0.7652,51.045108,13.776909,117.19
82807500,-0.9511,-0.2941,-9.8844,-0.9043,-2.713,0.9739,51.045108,13.776909,117.18
82807500,-1.1865,-0.7158,-10.9141,-0.626,-4.0347,0.9043,51.045108,13.776909,117.18
82807500,-0.3824,-0.7452,-9.8452,-1.6695,-2.7826,1.113,51.045108,13.776909,117.18
82807500,-0.6962,-0.3726,-9.6883,-1.0434,-2.9217,0.9739,51.045108,13.776909,117.18
82807500,-0.706,-0.147,-8.9921,-1.4608,-2.5739,0.9043,51.045112,13.776893,117.18
82807600,-1.2257,-0.2941,-9.8158,-0.8347,-3.3391,0.6956,51.045112,13.776893,117.17
82807600,-1.9514,-0.5001,-9.6295,-1.4608,-3.2695,0.7652,51.045112,13.776893,117.17
82807600,-1.5983,-0.4706,-10.3649,-1.1826,-2.713,0.626,51.045112,13.776893,117.17
82807600,-1.7062,-0.4314,-9.3353,-2.3652,-1.3217,0.7652,51.045112,13.776893,117.17
82807600,-0.8825,-0.5981,-9.3647,-1.7391,-2.0869,0.626,51.045116,13.776877,117.17
82807700,-1.2649,-0.3824,-9.7079,-2.3652,-2.0869,0.7652,51.045116,13.776877,117.18
82807700,-0.9904,-0.6668,-10.8062,-2.0869,-1.3913,0.6956,51.045116,13.776877,117.18
82807700,-0.6373,-0.353,-9.4726,-1.8086,-1.0434,0.5565,51.045116,13.776877,117.18
82807700,-0.2843,0.049,-9.1686,-1.8086,-0.5565,0.3478,51.045116,13.776877,117.18
82807700,-0.7158,-0.2059,-9.7668,-1.8086,-1.0434,0.2782,51.04512,13.776861,117.18
82807800,-0.8629,0.0294,-9.5216,-0.9043,-1.6,0.3478,51.04512,13.776861,117.19
82807800,-1.0002,-0.4804,-8.8352,-1.113,-0.9739,0.1391,51.04512,13.776861,117.19
82807800,-1.4905,-0.3039,-10.159,-1.3913,-1.9478,0.1391,51.04512,13.776861,117.19
82807800,-1.1865,-0.6177,-9.8943,-1.7391,-1.113,0,51.04512,13.776861,117.19
82807800,-1.2845,-0.4412,-9.7766,-2.2956,-2.3652,0.0695,51.045123,13.776845,117.19
82807900,-0.3432,-0.1274,-9.1294,-1.8086,-1.6,0.0695,51.045123,13.776845,117.21
82807900,-0.5001,-0.5785,-9.7177,-0.7652,-1.4608,-0.1391,51.045123,13.776845,117.21
82807900,-0.3922,-0.0098,-10.2375,-1.2521,-1.6695,-0.0695,51.045123,13.776845,117.21
82807900,-0.402,0.0686,-9.8158,-1.0434,-2.0869,-0.2086,51.045123,13.776845,117.21
82807900,-1.2845,-0.0882,-9.0019,-1.0434,-2.0869,-0.1391,51.045127,13.776829,117.21
82808000,-1.0786,-0.049,-10.1492,-0.6956,-2.0173,-0.1391,51.045127,13.776829,117.22
82808000,-1.6179,-0.9021,-10.0021,-0.9043,-2.4347,-0.0695,51.045127,13.776829,117.22
82808000,-0.7648,-0.657,-10.6395,-1.1826,-2.713,0.1391,51.045127,13.776829,117.22
82808000,-1.1276,0.0196,-9.0215,-1.0434,-1.9478,0,51.045127,13.776829,117.22
82808000,-0.2647,-0.1667,-9.6785,-1.1826,-1.9478,-0.1391,51.045131,13.776813,117.22
82808100,-0.4314,-0.2059,-9.9629,-1.113,-1.7391,0.0695,51.045131,13.776813,117.24
82808100,-0.2059,-0.049,-9.453,-1.113,-2.0173,-0.1391,51.045131,13.776813,117.24
82808100,-0.8825,-0.5687,-9.404,-0.7652,-2.3652,-0.0695,51.045131,13.776813,117.24
82808100,-1.4512,0.2157,-8.9333,-1.2521,-2.0869,-0.1391,51.045131,13.776813,117.24
82808100,-2.1671,-0.6177,-10.2571,-0.4869,-1.9478,-0.1391,51.045134,13.776797,117.24
82808200,-0.804,0.1274,-10.208,-0.9043,-2.1565,-0.2086,51.045134,13.776797,117.26
82808200,-1.0002,-0.5687,-10.5905,-0.9739,-2.226,-0.2086,51.045134,13.776797,117.26
82808200,0.1176,-0.706,-9.0313,-1.2521,-1.9478,-0.2086,51.045134,13.776797,117.26
82808200,0.1372,-0.5491,-9.198,-1.0434,-1.5304,-0.2782,51.045134,13.776797,117.26
82808200,-0.0294,-0.1176,-8.7862,-1.3217,-1.0434,-0.4173,51.045138,13.77678,117.26
82808300,-0.7942,-0.049,-10.0904,-1.4608,-2.713,-0.4173,51.045138,13.77678,117.27
82808300,-0.9119,-0.2647,-9.7472,-1.3217,-2.713,-0.2086,51.045138,13.77678,117.27
82808300,-1.2845,-0.402,-9.9629,-1.113,-2.4347,-0.4869,51.045138,13.77678,117.27
82808300,-1.2649,-0.4804,-10.3453,-1.7391,-3.0608,-0.3478,51.045138,13.77678,117.27
82808300,-0.6177,-0.5099,-9.7668,-2.226,-2.7826,-0.2086,51.045142,13.776764,117.27
82808400,-0.5491,-0.3432,-9.2471,-1.8086,-2.4347,-0.4173,51.045142,13.776764,117.28
82808400,-0.3726,-0.098,-9.3549,-1.5304,-1.7391,-0.2086,51.045142,13.776764,117.28
82808400,-0.7746,-0.1078,-9.1392,-0.7652,-1.5304,-0.3478,51.045142,13.776764,117.28
82808400,-1.3042,-0.2255,-9.6197,-0.9043,-2.0173,-0.2782,51.045142,13.776764,117.28
82808400,-1.5493,-0.3137,-9.6491,-1.3913,-1.8782,-0.3478,51.045146,13.776747,117.28
82808500,-0.9511,-0.5197,-10.1688,-1.5304,-2.226,-0.1391,51.045146,13.776747,117.28
82808500,-0.3922,-0.2157,-9.2863,-1.2521,-0.2782,-0.4869,51.045146,13.776747,117.28
82808500,-0.1372,-0.6471,-9.2667,-1.0434,-0.8347,-0.3478,51.045146,13.776747,117.28
82808500,0.098,-0.1667,-9.149,-0.8347,-0.0695,-0.2086,51.045146,13.776747,117.28
82808500,-0.402,-0.3628,-9.8648,-0.7652,-1.0434,-0.4173,51.045149,13.776731,117.28
82808600,-0.0588,-0.1765,-8.8352,-1.8086,-0.2782,-0.2086,51.045149,13.776731,117.28
82808600,-0.3039,-0.0196,-10.4238,-1.3913,-1.6695,-0.2782,51.045149,13.776731,117.28
82808600,-0.1274,-0.0882,-9.8158,-1.3913,-0.1391,-0.2086,51.045149,13.776731,117.28
82808600,-0.2255,-0.2745,-8.7862,-0.626,-0.9739,-0.4173,51.045149,13.776731,117.28
82808600,-0.5491,-0.5295,-10.6003,-1.113,-1.6,-0.5565,51.045153,13.776714,117.28
82808700,-0.657,-0.3137,-9.855,-1.8782,-1.7391,-0.2782,51.045153,13.776714,117.27
82808700,-0.0686,-0.7158,-9.6589,-1.113,-1.6,-0.2086,51.045153,13.776714,117.27
82808700,-0.6864,-0.5197,-10.2571,-0.9739,-2.713,-0.4173,51.045153,13.776714,117.27
82808700,0.0588,-0.2647,-9.502,-1.8782,-1.4608,-0.4173,51.045153,13.776714,117.27
82808700,-0.2647,0.1078,-10.512,-2.2956,-1.8782,-0.2782,51.045157,13.776698,117.27
82808800,-0.5589,-0.1274,-10.4238,-2.0173,-2.2956,-0.2086,51.045157,13.776698,117.25
82808800,-0.804,-0.2353,-9.6197,-1.8086,-1.7391,-0.2086,51.045157,13.776698,117.25
82808800,-0.3432,0.2255,-9.8158,-1.8086,-1.3913,-0.1391,51.045157,13.776698,117.25
82808800,-0.1765,0.1667,-10.0806,-1.6,-0.626,-0.4173,51.045157,13.776698,117.25
82808800,-0.1863,0.147,-9.7766,-1.7391,-1.113,-0.2782,51.045161,13.776682,117.25
82808900,-0.2941,-0.3726,-10.5218,-1.8782,-0.8347,-0.4869,51.045161,13.776682,117.22
82808900,-0.0294,-0.049,-9.7962,-1.9478,-1.3217,-0.2086,51.045161,13.776682,117.22
82808900,0.451,-0.0588,-9.149,-1.5304,0.2782,-0.5565,51.045161,13.776682,117.22
82808900,0.5197,-0.0392,-9.0705,-1.5304,-0.5565,-0.4869,51.045161,13.776682,117.22
82808900,-0.3628,0.3235,-9.4726,-2.3652,-2.3652,-0.4869,51.045165,13.776665,117.22
82809000,-0.1863,-0.6373,-10.6101,-2.226,-1.9478,-0.4173,51.045165,13.776665,117.21
82809000,-0.2059,-0.6864,-9.6589,-1.6695,-2.0869,-0.2782,51.045165,13.776665,117.21
82809000,-0.0098,-0.4216,-9.6883,-1.1826,-0.9043,-0.5565,51.045165,13.776665,117.21
82809000,-0.3137,0.1176,-9.757,-0.6956,-2.6434,-0.4869,51.045165,13.776665,117.21
82809000,-0.1274,0.1176,-9.9727,-1.0434,-2.0869,-0.6956,51.045169,13.776648,117.21
82809100,0.2549,0.3922,-10.5611,-1.6695,-4.0347,-0.626,51.045169,13.776648,117.19
82809100,0.2549,-0.2157,-9.8256,-1.6,-3.2695,-0.7652,51.045169,13.776648,117.19
82809100,0.098,-0.5491,-8.2468,-1.113,-2.4347,-0.6956,51.045169,13.776648,117.19
82809100,-1.4611,-0.1274,-10.1884,-1.5304,-2.6434,-0.7652,51.045169,13.776648,117.19
82809100,-0.5197,0.3922,-10.5513,-1.8086,-4.1739,-0.6956,51.045173,13.776632,117.19
82809200,-1.0492,0.1961,-10.3944,-2.0869,-5.0782,-0.6956,51.045173,13.776632,117.17
82809200,-1.1865,-0.2647,-9.8354,-2.0173,-3.4782,-0.7652,51.045173,13.776632,117.17
82809200,-0.1863,-0.2941,-8.5018,-1.2521,-2.9217,-0.9043,51.045173,13.776632,117.17
82809200,-0.6373,-0.402,-9.2863,-0.4173,-2.1565,-0.9739,51.045173,13.776632,117.17
82809200,-1.4611,-0.4118,-10.6689,-1.6695,-4.5217,-0.6956,51.045177,13.776615,117.17
82809300,-1.2453,0.049,-10.1296,-2.9913,-3.6173,-0.6956,51.045177,13.776615,117.15
82809300,-1.4512,-0.1568,-10.4728,-1.6695,-3.826,-0.5565,51.045177,13.776615,117.15
82809300,-0.2059,-0.4903,-7.3447,-0.4869,-0.9739,-0.7652,51.045177,13.776615,117.15
82809300,-0.5785,-0.402,-9.1882,-0.5565,-1.8782,-1.1826,51.045177,13.776615,117.15
82809300,-1.5101,-0.2353,-8.9823,-1.8086,-3.2695,-0.5565,51.045181,13.776599,117.15
82809400,-1.4611,0.7354,-10.2473,-2.3652,-1.8782,-0.7652,51.045181,13.776599,117.14
82809400,-0.7452,-0.049,-9.1784,-1.3217,-1.4608,-0.6956,51.045181,13.776599,117.14
82809400,0.3922,-0.8825,-6.3641,-0.6956,1.2521,-0.9739,51.045181,13.776599,117.14
82809400,-1.9317,-0.3432,-11.3455,-0.4869,-4.1043,-0.9043,51.045181,13.776599,117.14
82809400,-1.5689,0.5883,-9.149,-2.0869,-1.3913,-0.7652,51.045185,13.776582,117.14
82809500,-1.5199,0.0294,-11.0906,-1.8782,-2.9217,-0.3478,51.045185,13.776582,117.12
82809500,0,-0.6766,-7.6487,-0.9739,-0.626,-0.7652,51.045185,13.776582,117.12
82809500,-0.6373,-0.4216,-9.0313,0.6956,-1.7391,-1.1826,51.045185,13.776582,117.12
82809500,-2.0984,-0.353,-9.5314,-0.9739,-1.7391,-0.7652,51.045185,13.776582,117.12
82809500,-2.0788,0.0392,-11.2279,-1.113,-3.2,-0.7652,51.045189,13.776566,117.12
82809600,-0.5393,-0.353,-9.0411,-1.4608,-1.3913,-1.0434,51.045189,13.776566,117.12
82809600,0.2059,0.2353,-8.492,-0.9043,-1.0434,-1.3217,51.045189,13.776566,117.12
82809600,-1.4807,-0.3432,-9.7766,1.113,-3.1304,-1.3217,51.045189,13.776566,117.12
82809600,-1.8631,-0.2255,-11.0612,-1.5304,-4.3826,-1.1826,51.045189,13.776566,117.12
82809600,-1.5787,0.9511,-11.473,-2.713,-4.6608,-1.2521,51.045193,13.776549,117.12
82809600,-1.0492,0.0588,-10.5218,-1.7391,-3.6173,-1.2521,51.045193,13.776549,117.12
82809700,-0.1667,-1.1767,-8.2076,0.2086,-1.0434,-1.4608,51.045193,13.776549,117.12
82809700,-2.5201,-0.5099,-10.2375,0.0695,-2.7826,-1.7391,51.045193,13.776549,117.12
82809700,-3.1281,0.0784,-11.2377,-2.6434,-3.6173,-1.113,51.045193,13.776549,117.12
82809700,-1.6179,0.4804,-10.1786,-2.0869,-3.1304,-0.7652,51.045197,13.776533,117.12
82809700,0.0784,-0.4314,-6.5798,-1.3217,1.113,-0.9043,51.045197,13.776533,117.1
82809800,-1.3042,-0.7354,-9.3353,0.5565,-0.9739,-1.6695,51.045197,13.776533,117.1
82809800,-0.755,0.6962,-8.6685,-0.626,-1.5304,-1.3217,51.045197,13.776533,117.1
82809800,-1.1767,0.9511,-10.8945,-1.2521,-1.3217,-1.4608,51.045197,13.776533,117.1
82809800,-1.6081,-0.1961,-11.7378,-2.226,-4.1043,-1.113,51.045201,13.776516,117.1
82809800,-0.1176,-0.451,-8.0801,-0.7652,1.9478,-1.3913,51.045201,13.776516,117.08
82809900,-0.4706,-1.412,-8.2076,0.0695,-0.7652,-1.5304,51.045201,13.776516,117.08
82809900,-0.8825,0.0588,-8.4626,-0.2782,-0.0695,-1.4608,51.045201,13.776516,117.08
82809900,-2.5495,0.7354,-11.9437,-1.8782,-3.826,-0.9043,51.045201,13.776516,117.08
82809900,-1.6081,-0.6668,-10.7866,-2.5739,-1.4608,-0.8347,51.045205,13.776499,117.08
82809900,0.9904,-0.2843,-8.2468,-2.5739,0.9739,-0.9739,51.045205,13.776499,117.11
82810000,-0.9217,0.049,-7.9723,0.7652,-1.2521,-1.3913,51.045205,13.776499,117.11
82810000,-0.1274,-0.6275,-9.3647,-0.1391,-0.2086,-1.0434,51.045205,13.776499,117.11
82810000,-0.8923,0.7844,-10.6395,-2.2956,-1.113,-0.9043,51.045205,13.776499,117.11
82810000,-1.8631,0.0686,-11.071,-2.5043,-2.8521,-0.6956,51.04521,13.776483,117.11
82810000,-1.0296,-0.2843,-9.1196,-1.6,-1.113,-0.8347,51.04521,13.776483,117.11
82810100,-0.4903,-0.4314,-8.0017,0.8347,0.5565,-1.3913,51.04521,13.776483,117.11
82810100,-1.2257,0.6079,-9.4432,0.4173,-1.5304,-1.4608,51.04521,13.776483,117.11
82810100,-1.4414,0.5491,-11.5319,-1.2521,-3.8956,-0.7652,51.04521,13.776483,117.11
82810100,-1.8239,-0.6766,-10.8651,-2.2956,-3.2695,-0.7652,51.045214,13.776465,117.11
82810100,0.4412,-0.4903,-9.4824,-1.9478,-0.0695,-0.9739,51.045214,13.776465,117.11
82810200,0.2647,-0.1176,-8.1292,0.1391,-0.4173,-1.3217,51.045214,13.776465,117.11
82810200,-1.6179,0.5589,-9.7668,-1.0434,-2.1565,-1.0434,51.045214,13.776465,117.11
82810200,-1.8533,-0.5197,-10.3944,-1.9478,-3.3391,-1.0434,51.045214,13.776465,117.11
82810200,-1.7062,-0.1961,-11.022,-2.9913,-2.9913,-0.5565,51.045218,13.776448,117.11
82810200,-0.7648,-0.0098,-9.3745,-2.2956,-1.3217,-0.626,51.045218,13.776448,117.11
82810300,-0.0196,-0.049,-7.7271,-0.626,0.9739,-1.113,51.045218,13.776448,117.15
82810300,-1.1963,0.2451,-9.9237,-0.8347,-2.9913,-1.113,51.045218,13.776448,117.15
82810300,-2.1279,-0.3039,-11.1102,-1.5304,-2.0173,-0.9043,51.045218,13.776448,117.15
82810300,-1.8925,0.3922,-11.2671,-0.8347,-3.4086,-0.9043,51.045227,13.776414,117.15
82810300,-0.6373,-0.3039,-8.8646,-2.5043,-1.5304,-0.626,51.045227,13.776414,117.15
82810400,-0.3235,-0.706,-9.4432,-0.7652,0.4173,-0.9739,51.045227,13.776414,117.14
82810400,-0.6373,-0.7746,-9.1294,-1.113,-0.6956,-0.9043,51.045227,13.776414,117.14
82810400,-0.6471,-0.147,-11.375,-1.113,-1.9478,-1.2521,51.045227,13.776414,117.14
82810400,-0.9707,0.5393,-10.6101,-2.1565,-1.3913,-0.5565,51.045231,13.776397,117.14
82810400,-1.4611,-0.5099,-10.3944,-1.5304,-1.5304,-0.626,51.045231,13.776397,117.14
82810500,-0.1863,-0.5393,-9.0902,-1.5304,-2.0869,-0.626,51.045231,13.776397,117.14
82810500,-0.5393,-0.8433,-9.3549,-0.0695,-1.3913,-0.5565,51.045231,13.776397,117.14
82810500,-1.4611,-0.657,-9.6099,-0.3478,-1.6695,-0.6956,51.045231,13.776397,117.14
82810500,-0.706,-0.2549,-9.4628,-1.3913,-2.0869,-0.4173,51.045236,13.77638,117.14
82810500,-0.5785,0.4706,-10.9141,-2.5043,-1.8782,-0.4173,51.045236,13.77638,117.14
82810600,-0.4608,-0.2745,-9.2471,-1.9478,-1.2521,-0.6956,51.045236,13.77638,117.14
82810600,-0.2843,-0.9904,-7.8056,-1.2521,-0.2086,-0.5565,51.045236,13.77638,117.14
82810600,0.0392,-0.4804,-8.4332,-0.9043,0.0695,-0.9739,51.045236,13.77638,117.14
82810600,-0.706,0.2353,-10.8356,-1.2521,-2.3652,-0.9043,51.04524,13.776362,117.14
82810600,-0.3824,0.3235,-10.2865,-2.713,-1.8782,-0.7652,51.04524,13.776362,117.14
82810700,-0.8727,-0.2647,-10.2865,-2.9217,-2.0869,-0.7652,51.04524,13.776362,117.14
82810700,-0.2941,-0.755,-8.5999,-2.5739,-1.0434,-0.6956,51.04524,13.776362,117.14
82810700,-0.402,-1.1767,-9.2961,-2.2956,-1.113,-0.7652,51.04524,13.776362,117.14
82810700,-0.2255,0.3628,-9.5118,-2.1565,-0.9739,-0.9043,51.045245,13.776345,117.14
82810700,-0.9904,0.4314,-11.3848,-2.7826,-2.6434,-0.7652,51.045245,13.776345,117.14
82810800,-0.6864,0.6177,-10.5611,-2.9913,-1.6,-0.7652,51.045245,13.776345,117.14
82810800,-0.706,0.1176,-9.7864,-2.226,-2.0173,-0.6956,51.045245,13.776345,117.14
82810800,-0.657,-0.706,-9.2274,-1.5304,-1.2521,-0.7652,51.045245,13.776345,117.14
82810800,0.6177,-0.5589,-7.9429,-0.9043,0,-0.8347,51.045249,13.776328,117.14
82810800,-0.5197,0.0588,-10.1688,-1.0434,-2.0869,-0.8347,51.045249,13.776328,117.14
82810900,-1.5689,0.1176,-11.8064,-2.4347,-3.6173,-0.626,51.045249,13.776328,117.15
82810900,-0.6177,-0.0294,-10.2375,-2.4347,-2.6434,-0.5565,51.045249,13.776328,117.15
82810900,-0.5001,-0.2549,-9.3647,-1.8782,-1.5304,-0.6956,51.045249,13.776328,117.15
82810900,0.1961,-0.2745,-8.5802,-0.7652,-2.0869,-0.626,51.045253,13.77631,117.15
82810900,0.2451,0.1078,-8.9921,-0.4869,-1.1826,-0.6956,51.045253,13.77631,117.15
82811000,-0.4706,0.5393,-10.2473,-0.1391,-2.6434,-0.6956,51.045253,13.77631,117.08
82811000,-1.5493,0.4118,-11.6495,-1.6,-3.9652,-0.4869,51.045253,13.77631,117.08
82811000,-0.3628,0.1961,-10.0904,-1.2521,-1.9478,-0.4173,51.045253,13.77631,117.08
82811000,-0.5393,-0.5099,-9.3745,-0.5565,-2.2956,-0.5565,51.045257,13.776293,117.08
82811000,0.2157,-0.2255,-8.5214,0.4869,-1.4608,-0.7652,51.045257,13.776293,117.08
82811100,0,-0.3922,-8.5214,0.8347,-0.5565,-0.9739,51.045257,13.776293,117.09
82811100,-0.6864,-0.3628,-11.1396,-0.5565,-2.9913,-0.7652,51.045257,13.776293,117.09
82811100,-1.2747,-0.0294,-10.4826,-1.3217,-2.0869,-0.4869,51.045257,13.776293,117.09
82811100,-1.108,-0.4804,-9.9923,-1.8782,-2.1565,-0.5565,51.045261,13.776275,117.09
82811100,-0.3824,-0.8335,-8.4037,-1.7391,-0.9043,-0.626,51.045261,13.776275,117.09
82811200,-0.1372,-0.4804,-9.0705,0.1391,-1.5304,-0.7652,51.045261,13.776275,117.09
82811200,0.6373,-0.1568,-8.7568,-0.4173,0.4869,-0.9739,51.045261,13.776275,117.09
82811200,-0.9413,-0.147,-11.5711,-1.113,-2.1565,-0.8347,51.045261,13.776275,117.09
82811200,-1.0884,-0.3334,-10.5513,-2.3652,-1.113,-0.626,51.045266,13.776258,117.09
82811200,-0.5197,0.147,-9.8648,-1.0434,-1.8782,-0.626,51.045266,13.776258,117.09
82811300,0.1667,-0.6864,-8.894,-1.113,-0.626,-0.7652,51.045266,13.776258,117.09
82811300,0.5491,-0.4608,-8.7077,-1.4608,-1.5304,-1.113,51.045266,13.776258,117.09
82811300,0.1078,-0.147,-9.6883,-1.0434,-2.0173,-0.9739,51.045266,13.776258,117.09
82811300,-1.4316,-0.0294,-11.6201,-2.3652,-4.8,-0.8347,51.04527,13.77624,117.09
82811300,-0.5589,0.4903,-9.8648,-2.6434,-2.5043,-0.8347,51.04527,13.77624,117.09
82811400,-0.9119,-0.451,-10.0708,-1.8782,-2.713,-0.8347,51.04527,13.77624,117.11
82811400,0.3137,-0.1667,-8.3547,-1.7391,-2.3652,-0.7652,51.04527,13.77624,117.11
82811400,0.1667,-0.4412,-8.6293,-0.2086,-1.9478,-1.113,51.04527,13.77624,117.11
82811400,0.147,-0.049,-9.0705,-1.0434,-0.9043,-0.9739,51.045275,13.776223,117.11
82811400,-1.1473,-0.0392,-11.6495,-2.9913,-3.9652,-0.5565,51.045275,13.776223,117.11
82811500,-0.2255,0.2353,-9.6981,-2.3652,-1.6,-0.6956,51.045275,13.776223,117.12
82811500,-0.4608,-0.3235,-9.8844,-1.6695,-1.7391,-0.8347,51.045275,13.776223,117.12
82811500,-0.657,-0.1765,-8.2665,-2.4347,-1.113,-0.626,51.045275,13.776223,117.12
82811500,-0.4608,-0.3628,-9.5216,-1.3217,-1.6695,-0.8347,51.045279,13.776205,117.12
82811500,-1.0492,0.4314,-9.7766,-2.0173,-1.8782,-0.6956,51.045279,13.776205,117.12
82811600,-1.1669,0.4314,-11.5809,-2.1565,-3.8956,-0.626,51.045279,13.776205,117.11
82811600,0.0098,0.2843,-9.4334,-2.5739,-1.0434,-0.7652,51.045279,13.776205,117.11
82811600,-0.6079,-1.0492,-9.855,-0.2782,-2.0173,-0.8347,51.045279,13.776205,117.11
82811600,-0.6962,-1.1865,-8.3939,-1.0434,-0.2782,-0.8347,51.045283,13.776188,117.11
82811600,0.0882,-0.3039,-9.3549,-1.1826,-2.2956,-1.2521,51.045283,13.776188,117.11
82811700,-1.1276,0.6079,-10.061,-1.6695,-2.0173,-0.9739,51.045283,13.776188,117.11
82811700,-1.1276,0,-11.0514,-2.0869,-4.1043,-0.8347,51.045283,13.776188,117.11
82811700,0.2647,0.0098,-10.4532,-2.0869,-2.713,-0.9043,51.045283,13.776188,117.11
82811700,-1.1473,-0.5393,-10.11,-1.6,-3.2,-1.0434,51.045288,13.776171,117.11
82811700,-0.1667,0.0294,-8.6293,-2.1565,-1.4608,-0.8347,51.045288,13.776171,117.11
82811800,-0.5295,-0.5393,-9.855,-0.626,-2.9913,-0.8347,51.045288,13.776171,116.99
82811800,0.2941,0.0098,-10.2571,-1.2521,-2.713,-0.8347,51.045288,13.776171,116.99
82811800,-0.6766,-0.049,-10.8651,-0.6956,-3.3391,-0.9739,51.045288,13.776171,116.99
82811800,-0.9609,-0.2647,-10.9631,-1.9478,-2.9217,-0.9043,51.045292,13.776153,116.99
82811800,-0.0686,-1.1571,-9.453,-1.9478,-2.7826,-0.626,51.045292,13.776153,116.99
82811900,-1.0296,-0.9806,-7.8154,-1.113,-1.3217,-0.6956,51.045292,13.776153,117.03
82811900,1.4611,0.4903,-7.3349,-1.5304,-0.8347,-0.9043,51.045292,13.776153,117.03
82811900,-0.8335,0.6177,-12.689,-1.2521,-3.4086,-1.2521,51.045292,13.776153,117.03
82811900,-0.5785,0.2843,-9.8746,-2.0869,-1.4608,-0.8347,51.045297,13.776136,117.03
82811900,-1.4316,-0.2647,-10.1492,-2.8521,-1.3217,-0.6956,51.045297,13.776136,117.03
82812000,-0.5001,-0.1176,-8.9823,-1.6,-1.2521,-0.9043,51.045297,13.776136,116.98
82812000,0.8139,0.049,-7.8938,-0.2086,0.2782,-1.113,51.045297,13.776136,116.98
82812000,-0.2353,0.2549,-10.1198,0.4173,-1.5304,-1.1826,51.045297,13.776136,116.98
82812000,-0.5295,0.3432,-10.5611,-0.5565,-1.6695,-1.1826,51.045301,13.776118,116.98
82812000,-0.9707,-0.0294,-10.4042,-2.5739,-1.9478,-1.1826,51.045301,13.776118,116.98
82812100,-0.3432,0.2255,-9.9237,-3.1304,-0.7652,-0.9739,51.045301,13.776118,116.92
82812100,-0.6766,-1.5493,-9.2274,-1.6,-2.0869,-0.6956,51.045301,13.776118,116.92
82812100,0.1274,0.0392,-8.9823,-0.9043,-0.3478,-0.8347,51.045301,13.776118,116.92
82812100,1.0198,-0.049,-9.6099,-2.5739,-2.5739,-0.6956,51.045306,13.776101,116.92
82812100,0.5589,0.3922,-10.8258,-1.9478,-1.8782,-1.3913,51.045306,13.776101,116.92
82812200,-5.2854,-1.5101,-11.2377,-2.1565,-5.426,-0.9739,51.045306,13.776101,116.95
82812200,-0.4412,0.8139,-10.3257,-3.0608,-5.0086,-1.0434,51.045306,13.776101,116.95
82812200,-1.3728,-0.4412,-10.8356,-1.3913,-4.1739,-1.113,51.045306,13.776101,116.95
82812200,-0.5001,-0.5687,-9.1882,-0.5565,-2.9913,-1.4608,51.04531,13.776083,116.95
82812200,-0.3039,0.1078,-9.4138,-1.5304,-2.9913,-1.3217,51.04531,13.776083,116.95
82812300,-0.2353,1.0884,-9.6197,-1.3913,-2.0173,-1.6695,51.04531,13.776083,116.96
82812300,-0.8629,0.2941,-10.7572,-3.1304,-3.1304,-1.2521,51.04531,13.776083,116.96
82812300,-0.5295,0.0588,-10.512,-2.4347,-2.1565,-1.0434,51.04531,13.776083,116.96
82812300,-1.2649,0.1274,-9.3353,-2.2956,-1.5304,-1.3217,51.045315,13.776066,116.96
82812300,-0.147,-0.4608,-8.7175,-2.226,0,-1.3913,51.045315,13.776066,116.96
82812400,0.2941,-0.3432,-8.541,-1.6695,-0.626,-1.4608,51.045315,13.776066,116.95
82812400,-0.755,0.6864,-9.9237,-0.6956,-1.0434,-1.7391,51.045315,13.776066,116.95
82812400,-0.657,0.3334,-10.4336,-1.8086,-2.0869,-1.6695,51.045315,13.776066,116.95
82812400,-0.4412,0.3922,-10.5709,-2.0173,-0.9043,-1.6,51.045319,13.776048,116.95
82812400,-0.1667,0.2059,-9.3843,-1.3217,0,-1.6695,51.045319,13.776048,116.95
82812500,-0.1372,-0.2451,-9.0902,-0.626,-1.113,-1.6695,51.045319,13.776048,116.92
82812500,0.2647,-0.1863,-8.2174,-0.5565,0.1391,-1.6,51.045319,13.776048,116.92
82812500,-0.147,0.0294,-10.6689,-0.3478,-1.8782,-1.7391,51.045319,13.776048,116.92
82812500,-0.8825,0.5197,-11.424,-1.2521,-2.6434,-1.3217,51.045324,13.776031,116.92
82812500,-0.3922,0.4216,-10.4728,-1.7391,-2.3652,-1.5304,51.045324,13.776031,116.92
82812600,-0.0882,0.3824,-9.5608,-1.5304,-1.8782,-1.6,51.045324,13.776031,116.92
82812600,-0.1372,-0.4804,-8.9529,0.1391,-1.9478,-1.6695,51.045324,13.776031,116.92
82812600,-0.0098,-0.0294,-9.5314,0.1391,-2.713,-1.6695,51.045324,13.776031,116.92
82812600,0.4314,0.3235,-9.7177,0.3478,-2.8521,-2.0173,51.045328,13.776013,116.92
82812600,-0.7648,0.706,-11.2083,-0.5565,-4.313,-1.9478,51.045328,13.776013,116.92
82812700,-0.7942,0.3628,-11.0808,-1.1826,-4.2434,-1.6,51.045328,13.776013,116.92
82812700,-0.2843,-0.0392,-10.1492,-1.0434,-3.4086,-1.6,51.045328,13.776013,116.92
82812700,0.0686,-0.1078,-9.7374,0.0695,-3.2,-1.8782,51.045328,13.776013,116.92
82812700,0.2549,-0.0784,-8.8646,-0.2782,-1.6,-1.9478,51.045333,13.775996,116.92
82812700,-0.1961,0.2843,-10.3748,-0.626,-3.2,-2.0173,51.045333,13.775996,116.92
82812800,-0.6864,0.7256,-10.6003,-0.9739,-3.4782,-2.1565,51.045333,13.775996,116.91
82812800,-0.8433,0.402,-11.022,-1.7391,-3.826,-1.9478,51.045333,13.775996,116.91
82812800,0.1078,-0.1176,-9.7276,-1.8086,-3.2,-2.0173,51.045333,13.775996,116.91
82812800,0.2353,-0.402,-9.1784,-1.2521,-2.4347,-2.1565,51.045338,13.775978,116.91
82812800,0.2255,-0.0294,-9.7766,-1.3217,-2.3652,-2.2956,51.045338,13.775978,116.91
82812900,-0.2941,0.4216,-9.9237,-1.8782,-2.713,-2.4347,51.045338,13.775978,116.96
82812900,-0.5785,0.2549,-11.4436,-2.3652,-3.2,-2.0869,51.045338,13.775978,116.96
82812900,-0.1274,0.3824,-10.4238,-2.6434,-2.9217,-2.1565,51.045338,13.775978,116.96
82812900,0.402,0.049,-8.7764,-1.8782,-1.4608,-2.5043,51.045343,13.775961,116.96
82812900,-0.049,-0.1765,-9.1784,-1.7391,-1.8782,-2.2956,51.045343,13.775961,116.96
82813000,0.3334,0.2059,-8.9823,-1.5304,-0.6956,-2.5739,51.045343,13.775961,116.95
82813000,-0.755,0.4706,-10.2473,-2.2956,-2.9913,-2.2956,51.045343,13.775961,116.95
82813000,0.049,0.5785,-9.8648,-2.9217,-1.7391,-2.2956,51.045343,13.775961,116.95
82813000,-0.3137,0.2157,-9.9237,-2.713,-2.5043,-2.4347,51.045347,13.775943,116.95
82813000,0.0392,0.0392,-9.2961,-2.2956,-0.9043,-2.5043,51.045347,13.775943,116.95
82813100,-0.1568,0.1568,-9.3647,-2.0173,-1.5304,-2.4347,51.045347,13.775943,116.96
82813100,0.6275,0.4216,-9.1588,-2.3652,-0.5565,-2.6434,51.045347,13.775943,116.96
82813100,0.0196,0.5393,-9.7177,-2.8521,-0.9739,-2.713,51.045347,13.775943,116.96
82813100,-0.4412,0.7158,-10.414,-3.4086,-1.6,-2.5739,51.045352,13.775926,116.96
82813100,0.1765,0.1765,-8.9921,-3.4086,-0.2086,-2.5739,51.045352,13.775926,116.96
82813200,0.2843,0.0784,-9.1196,-2.7826,-0.2782,-2.4347,51.045352,13.775926,116.97
82813200,-0.147,0.0294,-9.4432,-2.1565,-0.5565,-2.5739,51.045352,13.775926,116.97
82813200,0.3432,0.5099,-9.2372,-2.0869,-0.6956,-2.8521,51.045352,13.775926,116.97
82813200,-0.4216,0.9021,-10.0413,-2.3652,-2.226,-2.713,51.045357,13.775909,116.97
82813200,-0.098,0.4804,-9.2176,-2.3652,-1.0434,-2.7826,51.045357,13.775909,116.97
82813300,0.0294,0.1078,-9.9531,-2.5043,-1.3913,-2.5739,51.045357,13.775909,116.92
82813300,-0.2941,-0.0294,-9.404,-2.0869,-1.113,-2.5043,51.045357,13.775909,116.92
82813300,0.1961,0.3235,-8.6587,-2.6434,-0.0695,-2.9913,51.045357,13.775909,116.92
82813300,0.3432,0.657,-9.4236,-3.4086,-0.4869,-2.9913,51.045362,13.775892,116.92
82813300,-0.049,0.6177,-9.3549,-3.826,-0.7652,-2.8521,51.045362,13.775892,116.92
82813400,-0.4608,0.4903,-10.4336,-3.1304,-1.5304,-2.6434,51.045362,13.775892,116.95
82813400,0.4804,0.0098,-9.5707,-2.0869,-0.1391,-2.4347,51.045362,13.775892,116.95
82813400,0.0588,0.2353,-8.7469,-1.5304,0.8347,-2.8521,51.045362,13.775892,116.95
82813400,0.0686,1.2453,-6.5602,-0.6956,1.113,-2.9913,51.045367,13.775875,116.95
82813400,0.9904,1.3924,-10.1296,-0.1391,-0.626,-2.713,51.045367,13.775875,116.95
82813500,0.7746,0.5393,-11.8849,0.3478,0.9043,-2.713,51.045367,13.775875,116.88
82813500,0.2843,0.3235,-11.5024,-1.1826,-1.6695,-2.713,51.045367,13.775875,116.88
82813500,0.402,0.6864,-8.7371,-0.2782,-0.9043,-3.0608,51.045367,13.775875,116.88
82813500,1.2355,0.7256,-11.0514,-0.2086,-3.1304,-2.8521,51.045371,13.775858,116.88
82813500,0.2451,0.5491,-12.3458,-1.1826,-4.5217,-3.0608,51.045371,13.775858,116.88
82813600,0.5491,-0.2059,-11.1298,-2.4347,-6.1217,-2.713,51.045371,13.775858,116.81
82813600,0.147,0.1765,-11.9143,-2.1565,-7.2347,-2.8521,51.045371,13.775858,116.81
82813600,0.1961,0.402,-10.0315,-0.2782,-5.913,-2.9913,51.045371,13.775858,116.81
82813600,1.0296,0.9413,-8.9921,0.2782,-6.6782,-3.2,51.045377,13.775841,116.81
82813600,-0.1274,1.4022,-10.1688,1.7391,-10.5043,-2.9913,51.045377,13.775841,116.81
82813700,0.5295,1.4709,-11.2181,0.2782,-8.2086,-2.9913,51.045377,13.775841,116.84
82813700,-0.4412,0.8923,-11.5221,0.5565,-7.9304,-2.7826,51.045377,13.775841,116.84
82813700,-0.7746,0.8139,-10.5807,0,-7.7217,-2.3652,51.045377,13.775841,116.84
82813700,-0.9511,0.3039,-9.7177,-0.2782,-5.7739,-2.3652,51.045381,13.775824,116.84
82813700,0.6766,-0.5491,-9.6393,-0.1391,-3.9652,-2.8521,51.045381,13.775824,116.84
82813800,-1.0296,0.7942,-9.7766,-1.1826,-3.1304,-2.9913,51.045381,13.775824,116.78
82813800,-1.0492,0.3824,-10.3649,-2.3652,-5.1478,-2.713,51.045381,13.775824,116.78
82813800,-0.4608,0.4706,-11.0514,-1.6695,-1.9478,-2.9217,51.045381,13.775824,116.78
82813800,1.01,0.6373,-7.884,-0.626,-1.5304,-3.1304,51.045387,13.775808,116.78
82813800,0.0686,0.6079,-9.3745,0,-2.1565,-2.9217,51.045387,13.775808,116.78
82813900,-0.2157,-0.2941,-9.8354,0.8347,-3.9652,-3.1304,51.045387,13.775808,116.77
82813900,-0.2451,0.8825,-9.9433,-0.6956,-2.5043,-3.2,51.045387,13.775808,116.77
82813900,-1.1375,0.147,-10.5709,-1.7391,-2.2956,-2.6434,51.045387,13.775808,116.77
82813900,-0.1863,-0.2255,-9.6785,-1.6695,-1.113,-2.6434,51.045392,13.775792,116.77
82813900,-0.2549,-0.2647,-9.6099,-1.6,0.2782,-3.0608,51.045392,13.775792,116.77
82814000,0.5001,-0.353,-8.6783,-2.4347,0.6956,-2.9913,51.045392,13.775792,116.79
82814000,0.0392,0.049,-9.4432,-2.0869,0.5565,-2.7826,51.045392,13.775792,116.79
82814000,-0.402,0.5589,-10.061,-2.8521,-1.4608,-3.0608,51.045392,13.775792,116.79
82814000,0.3432,0.6766,-9.8746,-2.5043,-1.1826,-2.9913,51.045397,13.775775,116.79
82814000,0.6079,0.3726,-9.5608,-0.8347,-1.0434,-3.2695,51.045397,13.775775,116.79
82814100,0.8433,0.5393,-8.59,-0.6956,-0.3478,-3.2,51.045397,13.775775,116.78
82814100,-0.3824,0.3039,-9.7276,-0.9043,-2.4347,-3.1304,51.045397,13.775775,116.78
82814100,-0.2059,0.5491,-10.4238,-1.7391,-2.1565,-2.9217,51.045397,13.775775,116.78
82814100,0.098,0.3726,-9.7079,-2.0173,-2.2956,-2.8521,51.045402,13.775759,116.78
82814100,0.3235,0.3137,-10.1296,-2.0173,-1.9478,-2.8521,51.045402,13.775759,116.78
82814200,0.3922,0,-8.8548,-0.9739,-1.1826,-2.9217,51.045402,13.775759,116.81
82814200,0.0686,0.5785,-9.0215,-0.626,-0.8347,-3.0608,51.045402,13.775759,116.81
82814200,-0.2157,0.8335,-10.2767,-1.5304,-1.8782,-2.9217,51.045402,13.775759,116.81
82814200,-0.1961,0.5295,-10.6297,-1.5304,-2.226,-3.1304,51.045407,13.775743,116.81
82814200,0.4314,-0.1667,-10.2277,-0.9739,-1.3217,-2.9913,51.045407,13.775743,116.81
82814300,0.9119,0.3235,-8.6097,-0.626,-0.4173,-3.0608,51.045407,13.775743,116.78
82814300,0.0784,0.5197,-9.8158,-0.7652,-1.113,-2.9913,51.045407,13.775743,116.78
82814300,-0.0098,0.5001,-10.8651,-2.3652,-2.713,-2.7826,51.045407,13.775743,116.78
82814300,0,0.1176,-10.1198,-2.4347,-1.9478,-2.7826,51.045413,13.775727,116.78
82814300,0.6373,0.1863,-10.0119,-2.8521,-2.0173,-2.7826,51.045413,13.775727,116.78
82814400,0.3137,0.3432,-9.7079,-2.2956,-2.2956,-2.9913,51.045413,13.775727,116.79
82814400,0.0784,0.3824,-10.0806,-2.226,-3.0608,-3.1304,51.045413,13.775727,116.79
82814400,-0.1568,0.2451,-10.0217,-2.713,-2.713,-2.9913,51.045413,13.775727,116.79
82814400,0.0098,0.1372,-10.0119,-2.9217,-3.2,-2.8521,51.045418,13.775711,116.79
82814400,0.5589,-0.0882,-9.6687,-2.5739,-2.6434,-2.7826,51.045418,13.775711,116.79
82814500,0.0784,-0.2255,-9.3059,-2.8521,-2.2956,-2.7826,51.045418,13.775711,116.81
82814500,-0.2647,-0.098,-10.2865,-3.6869,-2.7826,-2.713,51.045418,13.775711,116.81
82814500,0.3235,0.3334,-9.5216,-4.4521,-2.6434,-2.7826,51.045418,13.775711,116.81
82814500,0.7158,0.1863,-10.0315,-5.0086,-2.2956,-2.713,51.045423,13.775695,116.81
82814500,0.8923,-0.5393,-10.6199,-5.0782,-2.713,-2.6434,51.045423,13.775695,116.81
82814600,0.0784,-0.5295,-10.2375,-5.4956,-2.5739,-2.7826,51.045423,13.775695,116.82
82814600,0.1078,0.4314,-9.1784,-5.9826,-2.4347,-2.6434,51.045423,13.775695,116.82
82814600,0.6864,0.3628,-10.9239,-5.7739,-3.6173,-2.8521,51.045423,13.775695,116.82
82814600,0.7452,0.5491,-9.9825,-5.4956,-3.0608,-2.9913,51.045429,13.775679,116.82
82814600,0.8433,0.3628,-9.453,-3.8956,-3.1304,-3.1304,51.045429,13.775679,116.82
82814700,0.3628,0.755,-9.9237,-3.4782,-4.0347,-2.9217,51.045429,13.775679,116.83
82814700,-0.2843,1.314,-9.453,-3.4086,-4.8,-3.0608,51.045429,13.775679,116.83
82814700,-0.657,0.6962,-10.5218,-2.5739,-4.2434,-2.8521,51.045429,13.775679,116.83
82814700,0.8531,0.5785,-8.5116,-1.6695,-2.2956,-2.9217,51.045434,13.775663,116.83
82814700,0.2255,-0.2549,-9.5314,-2.226,-2.5739,-2.9913,51.045434,13.775663,116.83
82814800,-0.5197,0.3824,-8.9136,-3.8956,-2.713,-2.9913,51.045434,13.775663,116.89
82814800,-0.0686,0.3432,-9.8648,-5.1478,-2.3652,-2.8521,51.045434,13.775663,116.89
82814800,0.7844,0.2255,-10.0021,-3.6173,-0.7652,-2.9217,51.045434,13.775663,116.89
82814800,0.0882,0.1961,-9.7079,-3.5478,-0.4869,-2.7826,51.04544,13.775647,116.89
82814800,0.6668,1.5689,-9.3941,-3.6173,-0.1391,-2.5739,51.04544,13.775647,116.89
82814900,-0.2549,0.2843,-9.855,-3.2695,-1.0434,-2.6434,51.04544,13.775647,117.05
82814900,0.0196,0.9707,-9.7276,-4.313,-1.2521,-2.0869,51.04544,13.775647,117.05
82814900,0.6766,0.755,-9.2569,-1.1826,-1.4608,-2.4347,51.04544,13.775647,117.05
82814900,0.7844,0.7746,-9.1196,-0.2086,-1.113,-2.4347,51.045445,13.775631,117.05
82814900,-0.049,-0.0588,-11.1396,-1.8782,-2.9913,-2.0869,51.045445,13.775631,117.05
82815000,0.5589,-0.0686,-9.2176,-3.0608,-1.1826,-2.226,51.045445,13.775631,117.05
82815000,-0.0294,0.4216,-9.1392,-2.5043,-2.0173,-2.226,51.045445,13.775631,117.05
82815000,0.5687,0.5393,-9.0019,-2.9913,-0.5565,-2.2956,51.045445,13.775631,117.05
82815000,-0.1667,0.6766,-10.463,-2.3652,-1.9478,-2.5043,51.04545,13.775616,117.05
82815000,0.2941,0.7256,-9.6393,-1.7391,-0.9043,-2.5739,51.04545,13.775616,117.05
82815100,0.4314,0.8335,-8.845,-0.5565,-1.0434,-2.8521,51.04545,13.775616,117.11
82815100,0.4412,0.6177,-8.4233,-0.0695,-0.2782,-2.9913,51.04545,13.775616,117.11
82815100,-0.4412,0.2451,-9.2176,-0.6956,-0.626,-2.8521,51.04545,13.775616,117.11
82815100,-0.2549,0.2745,-9.3157,-1.6695,-0.4869,-2.5739,51.045456,13.7756,117.11
82815100,0.3824,0.8727,-9.3157,-1.7391,-0.2086,-2.3652,51.045456,13.7756,117.11
82815200,0.2843,0.3334,-8.6881,-0.4869,1.2521,-2.713,51.045456,13.7756,117.09
82815200,-0.4216,0.2059,-9.3843,-0.3478,1.6695,-2.5043,51.045456,13.7756,117.09
82815200,-0.1274,0.3235,-9.3843,-1.0434,1.2521,-2.226,51.045456,13.7756,117.09
82815200,0.5099,0.5393,-9.4236,-0.626,1.6,-2.3652,51.045461,13.775585,117.09
82815200,0.1078,0.5491,-9.9237,0.2782,0.8347,-2.0173,51.045461,13.775585,117.09
82815300,0.3726,0.3628,-9.8648,0.2086,0.5565,-1.6695,51.045461,13.775585,117.1
82815300,0.5099,1.0688,-9.4922,0.626,0.626,-1.8782,51.045461,13.775585,117.1
82815300,0.5393,0.049,-9.6393,1.3913,-0.2086,-1.8086,51.045461,13.775585,117.1
82815300,0.6177,-0.0882,-10.0512,0.3478,-1.2521,-1.4608,51.045466,13.77557,117.1
82815300,0.5785,0.1765,-9.2961,0.6956,-1.4608,-1.5304,51.045466,13.77557,117.1
82815400,-0.1274,-0.0392,-10.1786,0.4869,-2.6434,-1.6,51.045466,13.77557,116.97
82815400,0.3235,0.2059,-10.0512,0.626,-3.0608,-1.5304,51.045466,13.77557,116.97
82815400,0.3334,0.1961,-9.9335,0.7652,-2.9913,-1.8782,51.045466,13.77557,116.97
82815400,0.402,0.2059,-9.6785,0.3478,-2.7826,-1.8086,51.045472,13.775555,116.97
82815400,-0.3137,0.2647,-9.7864,0.6956,-3.0608,-1.7391,51.045472,13.775555,116.97
82815500,-0.4804,-0.2157,-10.3846,0.3478,-3.8956,-1.5304,51.045472,13.775555,116.97
82815500,0.2451,-0.3137,-9.5314,0,-2.3652,-1.6695,51.045472,13.775555,116.97
82815500,0.0294,-0.2059,-9.7276,-0.3478,-2.2956,-1.6695,51.045472,13.775555,116.97
82815500,0.6079,-0.1274,-10.6689,-1.0434,-2.3652,-1.6695,51.045477,13.77554,116.97
82815500,-0.0686,0.2059,-9.9433,-0.9739,-2.2956,-1.5304,51.045477,13.77554,116.97
82815600,0.0098,0.2647,-9.3647,-1.3217,-1.5304,-1.5304,51.045477,13.77554,116.99
82815600,-0.1078,0.0882,-9.6393,-1.113,-2.2956,-1.6,51.045477,13.77554,116.99
82815600,-0.2059,-0.0098,-10.6395,-1.0434,-2.4347,-1.4608,51.045477,13.77554,116.99
82815600,0.3432,0.4118,-10.2473,-1.2521,-2.5043,-1.4608,51.045483,13.775526,116.99
82815600,0.1863,0.3039,-10.1198,-0.4869,-3.7565,-1.4608,51.045483,13.775526,116.99
82815700,0,0.6471,-9.502,-0.4869,-3.0608,-1.3913,51.045483,13.775526,116.98
82815700,-0.353,-0.0392,-10.0806,-0.1391,-3.4782,-1.4608,51.045483,13.775526,116.98
82815700,-0.3824,-0.1176,-11.071,-0.7652,-4.1043,-1.1826,51.045483,13.775526,116.98
82815700,0.2549,-0.1961,-9.7472,-0.8347,-3.1304,-1.2521,51.045488,13.775511,116.98
82815700,-0.1274,-0.2353,-10.159,-1.2521,-3.9652,-1.6695,51.045488,13.775511,116.98
82815800,0.3137,0.049,-9.9237,-1.8086,-3.2,-1.2521,51.045488,13.775511,117
82815800,-0.147,0.0882,-9.9923,-1.3217,-3.2,-1.0434,51.045488,13.775511,117
82815800,-0.3235,0.049,-9.551,-1.6695,-2.9913,-1.2521,51.045488,13.775511,117
82815800,-0.1274,0.2059,-9.404,-1.6,-3.2,-1.3913,51.045494,13.775497,117
82815800,-0.0294,0.0392,-10.0806,-1.1826,-3.3391,-1.5304,51.045494,13.775497,117
82815900,0.2059,-0.0882,-9.5805,-1.2521,-2.8521,-1.4608,51.045494,13.775497,116.98
82815900,-0.3235,-0.0098,-9.7766,-0.9739,-3.2,-1.2521,51.045494,13.775497,116.98
82815900,-0.5687,-0.0392,-9.7177,-1.6,-2.5739,-1.1826,51.045494,13.775497,116.98
82815900,-0.2941,0,-9.1784,-1.3217,-2.226,-1.2521,51.045499,13.775483,116.98
82815900,-0.5687,-0.1274,-10.2963,-1.4608,-2.6434,-1.4608,51.045499,13.775483,116.98
82816000,-0.1863,-0.1372,-10.0806,-1.8782,-2.9913,-1.3913,51.045499,13.775483,116.97
82816000,-0.2647,-0.3824,-9.2176,-2.1565,-2.2956,-1.3217,51.045499,13.775483,116.97
82816000,-0.2843,-0.0392,-9.1098,-2.4347,-1.0434,-1.1826,51.045499,13.775483,116.97
82816000,-0.1863,0.3235,-8.9235,-2.0869,-0.8347,-1.4608,51.045505,13.775468,116.97
82816000,-0.9904,0.2059,-10.6199,-1.2521,-1.9478,-1.4608,51.045505,13.775468,116.97
82816100,0.0196,-0.1667,-8.845,-1.2521,-0.0695,-1.3913,51.045505,13.775468,116.96
82816100,-0.0882,-0.3235,-8.6685,-0.9043,-0.626,-1.3217,51.045505,13.775468,116.96
82816100,0.098,0.5197,-9.5118,-1.5304,-0.1391,-1.1826,51.045505,13.775468,116.96
82816100,-0.098,0.1568,-9.8648,-0.5565,-0.7652,-1.2521,51.04551,13.775454,116.96
82816100,-0.2647,-0.2157,-10.0806,-1.7391,-0.2782,-0.9739,51.04551,13.775454,116.96
82816200,0.0392,-0.9217,-10.767,-3.0608,-0.7652,-1.113,51.04551,13.775454,117
82816200,-1.1276,0.2647,-9.3451,-2.5043,-1.2521,-0.7652,51.04551,13.775454,117
82816200,0.7746,0.5589,-9.0705,-2.1565,-1.5304,-0.9739,51.04551,13.775454,117
82816200,0.4412,0.0686,-10.6297,-1.3913,-1.7391,-1.1826,51.045516,13.775439,117
82816200,-0.1078,0,-11.1788,-2.0173,-3.0608,-0.9043,51.045516,13.775439,117
82816300,-0.402,0.0588,-9.1784,-1.6695,-2.2956,-0.9043,51.045516,13.775439,116.99
82816300,-0.2059,0.0686,-9.3255,-1.5304,-3.9652,-0.8347,51.045516,13.775439,116.99
82816300,0.804,0.5197,-9.9237,-2.1565,-3.3391,-0.9043,51.045516,13.775439,116.99
82816300,0.353,0.0882,-9.7079,-1.6695,-3.4086,-0.9043,51.045522,13.775425,116.99
82816300,-0.7746,0,-11.1788,-1.1826,-5.3565,-0.4869,51.045522,13.775425,116.99
82816400,-0.2059,0.0686,-9.5608,-0.6956,-4.1739,-0.9739,51.045522,13.775425,117.04
82816400,-1.7062,-0.5099,-10.414,-1.113,-4.1739,-1.2521,51.045522,13.775425,117.04
82816400,0.1078,0.3432,-9.2274,-1.6695,-2.3652,-0.7652,51.045522,13.775425,117.04
82816400,-0.4314,-1.108,-9.2667,0.6956,-4.4521,-0.6956,51.045528,13.775411,117.04
82816400,-1.1473,-0.402,-9.8746,-2.0869,-3.0608,-0.5565,51.045528,13.775411,117.04
82816500,-0.049,-0.5687,-9.1,-2.5739,-2.2956,-0.7652,51.045528,13.775411,117.08
82816500,-0.5001,-0.3039,-9.2471,-1.7391,-1.6695,-0.626,51.045528,13.775411,117.08
82816500,-1.2845,0.2647,-10.4238,-3.1304,-1.6,-0.5565,51.045528,13.775411,117.08
82816500,-0.1667,0.402,-10.0413,-1.4608,-0.6956,-0.626,51.045534,13.775397,117.08
82816500,-0.4314,-0.098,-10.3748,-1.1826,-1.0434,-0.4173,51.045534,13.775397,117.08
82816600,-0.5785,-0.2255,-9.4824,-1.5304,0,-0.8347,51.045534,13.775397,117.14
82816600,0.2647,0.2843,-8.9529,-1.3217,0.4173,-0.4869,51.045534,13.775397,117.14
82816600,-0.0588,-0.098,-9.7766,-1.4608,-0.2782,-0.5565,51.045534,13.775397,117.14
82816600,0.1863,-0.3922,-9.1882,-0.8347,1.1826,-0.4173,51.045539,13.775382,117.14
82816600,0.5589,0.5393,-9.5412,-1.6,-0.626,-0.5565,51.045539,13.775382,117.14
82816700,-0.5393,0.1078,-9.8844,-0.8347,-1.3217,-0.5565,51.045539,13.775382,117.15
82816700,-0.2843,-0.2059,-9.6589,-0.2086,-1.3217,-0.6956,51.045539,13.775382,117.15
82816700,0.0686,-0.1372,-9.2274,-0.4173,-1.4608,-0.8347,51.045539,13.775382,117.15
82816700,-0.2157,0.0098,-9.7668,-0.2086,-1.2521,-0.8347,51.045545,13.775368,117.15
82816700,0.5393,0.1078,-9.6687,-0.4173,-0.9739,-0.4869,51.045545,13.775368,117.15
82816800,-0.5099,-0.147,-9.7766,-0.9043,-1.1826,-0.6956,51.045545,13.775368,117.16
82816800,-0.3137,-0.3039,-9.3843,-0.4869,-0.7652,-0.5565,51.045545,13.775368,117.16
82816800,0.1961,0.049,-9.4824,-1.6,-0.9739,-0.626,51.045545,13.775368,117.16
82816800,-0.0392,-0.2843,-9.9825,-0.8347,-1.6695,-0.626,51.045551,13.775354,117.16
82816800,0.1961,-0.1667,-9.9923,-0.9043,-2.0869,-0.5565,51.045551,13.775354,117.16
82816900,-0.2353,-0.147,-9.7864,-0.6956,-1.5304,-0.626,51.045551,13.775354,117.17
82816900,-0.4706,-0.1176,-10.512,-0.9043,-2.713,-0.6956,51.045551,13.775354,117.17
82816900,0.1667,0.1863,-10.11,-1.4608,-2.0869,-0.4173,51.045551,13.775354,117.17
82816900,0.0196,0.1274,-9.2471,-0.4173,-2.0869,-0.5565,51.045557,13.775339,117.17
82816900,-0.2451,-0.2745,-9.9237,-0.9739,-3.2,-0.4869,51.045557,13.775339,117.17
82817000,0.4118,-0.1176,-9.404,-1.3913,-2.4347,-0.4869,51.045557,13.775339,117.18
82817000,-0.0098,0.1274,-9.9629,-1.1826,-2.713,-0.5565,51.045557,13.775339,117.18
82817000,-0.755,-0.5393,-11.1592,-1.4608,-3.2695,-0.4173,51.045557,13.775339,117.18
82817000,-0.1961,-0.0588,-8.8058,-1.6695,-2.0173,-0.2782,51.045562,13.775325,117.18
82817000,-0.451,-0.0882,-9.9335,-1.3913,-2.4347,-0.4869,51.045562,13.775325,117.18
82817100,-0.0196,-0.147,-9.8844,-1.5304,-2.2956,-0.4869,51.045562,13.775325,117.18
82817100,-0.3432,-0.2451,-9.3745,-1.113,-1.6,-0.4869,51.045562,13.775325,117.18
82817100,-0.402,-0.3824,-9.8746,-1.3913,-2.3652,-0.3478,51.045562,13.775325,117.18
82817100,0.2157,-0.0392,-9.502,-1.1826,-2.0173,-0.4173,51.045568,13.775311,117.18
82817100,-0.2647,-0.2353,-9.3157,-1.1826,-1.7391,-0.6956,51.045568,13.775311,117.18
82817200,-0.1863,-0.5001,-9.806,-1.8086,-2.0869,-0.4173,51.045568,13.775311,117.18
82817200,0.402,-0.0196,-9.453,-1.3217,-1.6,-0.3478,51.045568,13.775311,117.18
82817200,-0.3235,-0.0784,-10.5611,-1.4608,-2.1565,-0.4869,51.045568,13.775311,117.18
82817200,0,-0.0196,-9.8158,-1.7391,-2.0173,-0.4869,51.045573,13.775297,117.18
82817200,0.0588,-0.0588,-9.5118,-1.2521,-1.9478,-0.6956,51.045573,13.775297,117.18
82817300,-0.2157,-0.2549,-9.6197,-1.4608,-2.1565,-0.4869,51.045573,13.775297,117.17
82817300,0.1765,-0.2941,-9.6197,-1.8782,-2.4347,-0.3478,51.045573,13.775297,117.17
82817300,-0.1568,-0.0784,-10.8651,-1.4608,-2.5739,-0.4173,51.045573,13.775297,117.17
82817300,0.2255,0.0196,-9.7374,-1.2521,-2.8521,-0.3478,51.045579,13.775283,117.17
82817300,-0.1274,-0.049,-9.5314,-1.113,-3.3391,-0.4173,51.045579,13.775283,117.17
82817400,-0.2647,-0.1961,-10.512,-1.113,-3.0608,-0.3478,51.045579,13.775283,117.17
82817400,-0.1765,-0.049,-9.9237,-1.6,-3.0608,-0.2782,51.045579,13.775283,117.17
82817400,-0.2157,-0.4216,-9.551,-1.3217,-3.2,-0.4173,51.045579,13.775283,117.17
82817400,-0.3432,-0.1961,-10.3453,-1.4608,-3.4782,-0.2086,51.045584,13.775269,117.17
82817400,-0.0686,-0.3628,-8.8842,-1.1826,-2.226,-0.4869,51.045584,13.775269,117.17
82817500,-0.1274,-0.2549,-9.7864,-1.3913,-2.8521,-0.2086,51.045584,13.775269,117.15
82817500,-0.1274,-0.0294,-9.855,-1.3913,-2.5739,-0.2086,51.045584,13.775269,117.15
82817500,-0.7746,-0.0784,-9.7962,-1.6,-2.8521,-0.4173,51.045584,13.775269,117.15
82817500,-0.1274,-0.0392,-9.7864,-1.7391,-2.5043,-0.2782,51.04559,13.775255,117.15
82817500,0.2745,0.1078,-8.9333,-1.1826,-1.6,-0.2086,51.04559,13.775255,117.15
82817600,-0.5295,-0.0294,-10.3649,-1.7391,-1.9478,-0.2782,51.04559,13.775255,117.14
82817600,-0.2843,-0.1667,-9.7864,-2.0869,-1.8782,-0.3478,51.04559,13.775255,117.14
82817600,-0.5197,-0.1863,-9.855,-1.2521,-2.1565,-0.4173,51.04559,13.775255,117.14
82817600,0.1176,-0.2549,-9.2863,-1.6,-0.9739,-0.5565,51.045595,13.775241,117.14
82817600,-0.3039,-0.2549,-9.8354,-1.1826,-1.2521,-0.3478,51.045595,13.775241,117.14
82817700,-0.2647,-0.3334,-10.1296,-1.2521,-1.2521,-0.2086,51.045595,13.775241,117.13
82817700,0.2451,-0.1078,-9.2078,-1.6695,-0.9043,-0.2782,51.045595,13.775241,117.13
82817700,-0.0098,-0.2549,-9.8158,-1.3913,-1.7391,-0.4173,51.045595,13.775241,117.13
82817700,-0.2353,-0.2059,-10.0512,-1.9478,-2.0869,-0.3478,51.0456,13.775227,117.13
82817700,0.1568,-0.2451,-9.3451,-1.6695,-1.3217,-0.3478,51.0456,13.775227,117.13
82817800,-0.5197,-0.0686,-10.2473,-2.0173,-2.1565,-0.0695,51.0456,13.775227,117.11
82817800,-0.0098,-0.1274,-10.0021,-2.1565,-2.3652,-0.2782,51.0456,13.775227,117.11
82817800,-0.2255,-0.2941,-9.7766,-1.8086,-2.7826,-0.2782,51.0456,13.775227,117.11
82817800,0.706,0.049,-9.1882,-2.1565,-1.9478,-0.2782,51.045606,13.775213,117.11
82817800,-0.0882,-0.0588,-9.4628,-1.4608,-2.2956,-0.5565,51.045606,13.775213,117.11
82817900,-0.353,0.1078,-9.7472,-1.8782,-2.2956,-0.1391,51.045606,13.775213,117.1
82817900,-0.1372,0.1568,-9.551,-2.1565,-2.226,-0.0695,51.045606,13.775213,117.1
82817900,0.1274,-0.2451,-9.9335,-0.9043,-2.0869,-0.3478,51.045606,13.775213,117.1
82817900,-0.1863,-0.3235,-9.806,-1.3217,-2.6434,-0.1391,51.045611,13.775199,117.1
82817900,0.098,-0.0882,-8.8352,-2.2956,-1.2521,-0.1391,51.045611,13.775199,117.1
82818000,-0.5981,0.0098,-10.2473,-2.3652,-2.1565,-0.1391,51.045611,13.775199,117.1
82818000,-0.0196,-0.147,-10.0512,-1.9478,-2.4347,-0.2086,51.045611,13.775199,117.1
82818000,0.2059,-0.0588,-9.3647,-1.8086,-1.6,-0.3478,51.045611,13.775199,117.1
82818000,-0.1176,0.2843,-9.9727,-1.8086,-1.6695,-0.2782,51.045616,13.775186,117.1
82818000,-0.0098,-0.2451,-8.5214,-1.3217,-1.4608,-0.4173,51.045616,13.775186,117.1
82818100,-0.6373,-0.4314,-10.0904,-1.4608,-2.5739,-0.2782,51.045616,13.775186,117.11
82818100,-0.1765,0.0294,-9.7177,-1.9478,-2.0173,-0.2782,51.045616,13.775186,117.11
82818100,-0.147,0.1176,-9.5118,-1.7391,-2.226,-0.1391,51.045616,13.775186,117.11
82818100,-0.0392,0.1961,-9.7177,-1.8086,-2.0173,-0.1391,51.045622,13.775172,117.11
82818100,-0.147,-0.3039,-9.0607,-1.3217,-1.4608,-0.3478,51.045622,13.775172,117.11
82818200,-0.3235,-0.5785,-9.9433,-1.2521,-1.5304,-0.1391,51.045622,13.775172,117.12
82818200,0.2059,-0.2451,-9.3157,-1.3217,-1.0434,0,51.045622,13.775172,117.12
82818200,0.2647,-0.1274,-9.3451,-1.0434,-1.4608,-0.2086,51.045622,13.775172,117.12
82818200,0.2353,0.049,-9.6099,-1.1826,-1.2521,0.1391,51.045627,13.775158,117.12
82818200,0,0.0392,-9.7276,-0.6956,-0.9043,0.0695,51.045627,13.775158,117.12
82818300,0.2451,-0.3137,-9.5608,-0.4173,-0.4173,0.0695,51.045627,13.775158,117.13
82818300,0.0294,-0.2941,-10.1688,-0.9739,-1.5304,0.2086,51.045627,13.775158,117.13
82818300,0.3432,-0.1667,-9.3549,-0.2782,-0.6956,0.2086,51.045627,13.775158,117.13
82818300,-0.1274,-0.402,-9.3843,0,-0.9043,0.2782,51.045632,13.775144,117.13
82818300,-0.5981,-0.3432,-10.0119,-0.4869,-1.9478,0.4173,51.045632,13.775144,117.13
82818400,0.3235,-0.3726,-9.9433,-0.5565,-1.3913,0.4869,51.045632,13.775144,117.13
82818400,0.5883,-0.3235,-9.453,-0.4869,-1.3217,0.4173,51.045632,13.775144,117.13
82818400,-0.3432,-0.706,-9.9629,-0.2086,-2.226,0.4869,51.045632,13.775144,117.13
82818400,0.049,-0.5001,-9.9433,-0.5565,-2.2956,0.8347,51.045638,13.77513,117.13
82818400,0.6373,-0.2059,-10.2669,-0.4869,-2.0173,0.5565,51.045638,13.77513,117.13
82818500,0.2549,-0.6668,-8.8646,-0.4869,-2.0173,0.4173,51.045638,13.77513,117.13
82818500,-0.5785,-0.5491,-10.4042,-1.0434,-3.2695,0.6956,51.045638,13.77513,117.13
82818500,0.049,-0.1274,-10.414,-1.7391,-2.3652,0.6956,51.045638,13.77513,117.13
82818500,0.6864,-0.2353,-8.6195,-1.3217,-1.2521,0.5565,51.045643,13.775116,117.13
82818500,-0.1274,-0.2059,-9.4236,-1.2521,-2.5043,0.626,51.045643,13.775116,117.13
82818600,-0.3628,0.0294,-9.6981,-2.0869,-2.5043,0.6956,51.045643,13.775116,117.12
82818600,0.4804,0.0196,-10.159,-1.3217,-2.9217,0.5565,51.045643,13.775116,117.12
82818600,-0.0392,-0.3824,-9.4628,-0.9043,-2.3652,0.4869,51.045643,13.775116,117.12
82818600,-0.4608,-0.6962,-10.5022,-1.1826,-3.0608,0.4869,51.045649,13.775102,117.12
82818600,0.1372,-0.0196,-9.3255,-1.6,-1.7391,0.4869,51.045649,13.775102,117.12
82818700,0.5099,-0.1961,-9.0509,-0.6956,-1.2521,0.4173,51.045649,13.775102,117.11
82818700,0.4314,-0.5589,-9.8943,-0.5565,-0.4173,0.2086,51.045649,13.775102,117.11
82818700,-0.402,-0.1961,-10.2669,-2.0173,-2.5739,0.4173,51.045649,13.775102,117.11
82818700,0.5197,-0.353,-9.7276,-1.6,-1.6,0.3478,51.045654,13.775089,117.11
82818700,-0.0686,-0.3137,-9.757,-1.113,-2.6434,0.1391,51.045654,13.775089,117.11
82818800,-0.6079,0.0098,-10.2473,-1.3913,-3.2695,0.1391,51.045654,13.775089,117.1
82818800,0.1176,0.0392,-9.5608,-1.8086,-2.2956,0.2086,51.045654,13.775089,117.1
82818800,0.3137,-0.4216,-9.149,-1.0434,-1.5304,0.0695,51.045654,13.775089,117.1
82818800,-0.7942,-0.3432,-10.0904,-1.113,-2.7826,0.2782,51.045659,13.775075,117.1
82818800,0.049,-0.2451,-9.3255,-1.8782,-2.7826,0.4173,51.045659,13.775075,117.1
82818900,0.5687,-0.3432,-10.0021,-1.1826,-1.9478,0.1391,51.045659,13.775075,117.09
82818900,-0.1863,-0.1372,-9.6785,-0.4869,-3.0608,0.2086,51.045659,13.775075,117.09
82818900,-0.1667,-0.3039,-10.1296,-1.2521,-2.3652,0.4869,51.045659,13.775075,117.09
82818900,0.6471,-0.0294,-9.4824,-1.2521,-1.9478,0.3478,51.045664,13.775061,117.09
82818900,0.4608,-0.4216,-9.4628,-0.7652,-1.9478,-0.0695,51.045664,13.775061,117.09
82819000,-0.5099,-0.3432,-9.8452,-1.4608,-2.713,0.2782,51.045664,13.775061,117.07
82819000,-0.2745,-0.2843,-9.9433,-1.9478,-2.2956,0.4173,51.045664,13.775061,117.07
82819000,0.353,-0.402,-9.6197,-0.9739,-1.4608,0.2782,51.045664,13.775061,117.07
82819000,0.2647,-0.5295,-8.7175,-1.2521,-1.7391,0.0695,51.04567,13.775048,117.07
82819000,-0.0882,-0.3235,-9.0705,-1.6,-1.6,0.2086,51.04567,13.775048,117.07
82819100,0.3824,-0.1078,-9.7374,-1.5304,-1.9478,0.2782,51.04567,13.775048,117.06
82819100,-0.2745,0.0686,-9.7472,-0.4869,-2.3652,-0.0695,51.04567,13.775048,117.06
82819100,-0.4706,-0.1961,-10.5513,-1.1826,-2.7826,0.2086,51.04567,13.775048,117.06
82819100,0.3235,-0.2059,-9.7668,-1.8086,-1.6,0.2782,51.045675,13.775034,117.06
82819100,0.7942,0.2843,-9.6589,-0.626,-0.9739,0.1391,51.045675,13.775034,117.06
82819200,-0.5491,-0.0294,-9.8354,0.2086,-1.6,0,51.045675,13.775034,117.05
82819200,-0.7354,-0.7452,-9.1,-1.113,-2.2956,0.3478,51.045675,13.775034,117.05
82819200,0.755,-0.5785,-8.894,-1.3217,-0.8347,0.2086,51.045675,13.775034,117.05
82819200,0.0098,-0.3432,-10.1198,-0.626,-2.1565,-0.0695,51.04568,13.77502,117.05
82819200,-0.7256,0.2059,-9.9237,-0.9043,-2.3652,0.2086,51.04568,13.77502,117.05
82819300,0.147,-0.0098,-9.2274,-0.626,-1.6695,0.1391,51.04568,13.77502,117.04
82819300,0.2451,-0.5393,-7.3447,-0.626,-1.113,-0.1391,51.04568,13.77502,117.04
82819300,-0.6864,-0.8335,-11.071,-1.3217,-2.9913,0.3478,51.04568,13.77502,117.04
82819300,0.402,0.0098,-10.3649,-1.3217,-1.6695,0.4869,51.045686,13.775007,117.04
82819300,0.706,0.0686,-8.59,-2.0869,-0.8347,0.2086,51.045686,13.775007,117.04
82819400,-0.4804,-0.4118,-9.6785,-1.6695,-0.9739,0.0695,51.045686,13.775007,117.03
82819400,-0.4216,-0.0294,-10.3355,-1.1826,-1.113,0.3478,51.045686,13.775007,117.03
82819400,0.6864,-0.4412,-10.2473,-0.6956,-0.7652,0.2782,51.045686,13.775007,117.03
82819400,0.049,0.2647,-9.9237,-2.5739,-3.2,0.2782,51.045691,13.774993,117.03
82819400,-0.0294,-0.0392,-10.3257,-1.6695,-2.9913,0.0695,51.045691,13.774993,117.03
82819500,0.1765,-0.0588,-8.7469,-1.3913,-2.4347,0.1391,51.045691,13.774993,117.02
82819500,-0.3039,-0.2647,-9.9727,-1.4608,-2.226,0,51.045691,13.774993,117.02
82819500,-0.2647,-0.7942,-10.5709,-1.7391,-3.4086,-0.0695,51.045691,13.774993,117.02
82819500,0,-0.3432,-9.9825,-2.713,-3.6173,0.1391,51.045696,13.774979,117.02
82819500,0.4412,-0.1274,-8.3645,-2.0869,-1.9478,-0.1391,51.045696,13.774979,117.02
82819600,-0.6177,-0.1274,-10.1786,-1.9478,-3.1304,0,51.045696,13.774979,117.01
82819600,-0.7844,-0.2157,-10.2963,-2.226,-2.8521,0.1391,51.045696,13.774979,117.01
82819600,0.4608,-0.3824,-9.4334,-2.6434,-1.1826,-0.0695,51.045696,13.774979,117.01
82819600,0.1961,-0.1078,-9.404,-2.226,-1.3217,-0.2782,51.045701,13.774966,117.01
82819600,-0.5001,0.0882,-10.0217,-2.2956,-2.0869,0,51.045701,13.774966,117.01
82819700,-0.0294,-0.3628,-9.3451,-2.226,-0.9739,0,51.045701,13.774966,117
82819700,0.2647,-0.049,-9.3843,-1.4608,-1.0434,-0.2086,51.045701,13.774966,117
82819700,-0.1863,-0.5491,-10.9631,-1.7391,-2.0173,0.1391,51.045701,13.774966,117
82819700,0.1176,0.0196,-10.1688,-2.2956,-2.0173,-0.1391,51.045707,13.774952,117
82819700,0.5491,-0.0294,-8.7371,-1.8086,-1.4608,-0.1391,51.045707,13.774952,117
82819800,-0.5099,-0.3628,-10.0806,-1.7391,-3.0608,0.2086,51.045707,13.774952,116.99
82819800,0.0784,-0.147,-10.2473,-2.0173,-2.3652,0,51.045707,13.774952,116.99
82819800,0.402,0.0392,-9.1196,-0.7652,-1.6,0,51.045707,13.774952,116.99
82819800,0.049,-0.3137,-9.9825,-1.2521,-2.9913,0,51.045712,13.774939,116.99
82819800,-0.0588,-0.049,-10.208,-1.6,-3.2,0.1391,51.045712,13.774939,116.99
82819900,0.2647,-0.3432,-9.1686,-0.626,-2.0173,-0.1391,51.045712,13.774939,116.97
82819900,-0.1667,-0.4314,-10.2277,-1.4608,-2.7826,0.0695,51.045712,13.774939,116.97
82819900,-0.3137,0,-10.5513,-1.8086,-3.0608,0.2782,51.045712,13.774939,116.97
82819900,0.0784,0.0784,-9.404,-1.0434,-2.3652,0.0695,51.045717,13.774926,116.97
82819900,0.1274,-0.0098,-9.6589,-0.6956,-2.4347,0.1391,51.045717,13.774926,116.97
82820000,-0.7256,-0.3922,-9.6197,-1.113,-2.8521,0.2086,51.045717,13.774926,116.95
82820000,0.2353,-0.3039,-10.0904,-1.3217,-2.5043,0.1391,51.045717,13.774926,116.95
82820000,0.5197,-0.2843,-9.3843,-0.9043,-1.3913,-0.0695,51.045717,13.774926,116.95
82820000,-0.657,-0.0882,-10.1688,-1.113,-3.2,0.2782,51.045722,13.774912,116.95
82820000,-0.0196,-0.0882,-9.855,-1.6695,-2.0173,0.2086,51.045722,13.774912,116.95
82820100,0.3824,-0.2745,-9.4628,-0.9739,-1.6695,0,51.045722,13.774912,116.93
82820100,-0.6373,-0.2157,-10.3944,-1.3217,-2.9217,0.2086,51.045722,13.774912,116.93
82820100,0.049,-0.4608,-9.6589,-1.8782,-1.8782,0.1391,51.045722,13.774912,116.93
82820100,0.1667,-0.2353,-8.9823,-1.7391,-1.6,-0.1391,51.045727,13.774899,116.93
82820100,-0.5393,-0.1372,-9.9727,-2.0173,-1.6695,0,51.045727,13.774899,116.93
82820200,0.098,0.1274,-9.8746,-2.226,-1.8782,0.0695,51.045727,13.774899,116.91
82820200,0.657,-0.2549,-9.4824,-1.8086,-0.6956,-0.0695,51.045727,13.774899,116.91
82820200,-0.3824,-0.3334,-9.7668,-2.1565,-1.6695,-0.0695,51.045727,13.774899,116.91
82820200,-0.2255,-0.1274,-10.0512,-2.7826,-2.1565,0.3478,51.045731,13.774885,116.91
82820200,0.1372,0.0294,-9.8746,-2.2956,-0.6956,0.1391,51.045731,13.774885,116.91
82820300,-0.1667,0.0686,-9.8158,-1.6,-1.0434,0,51.045731,13.774885,116.89
82820300,0.0882,0.0588,-10.11,-1.7391,-1.7391,0.2086,51.045731,13.774885,116.89
82820300,0.1961,-0.147,-9.502,-1.4608,-1.2521,-0.0695,51.045731,13.774885,116.89
82820300,0.049,-0.3137,-9.0019,-1.0434,-1.4608,-0.0695,51.045736,13.774872,116.89
82820300,-0.2255,-0.0882,-10.1198,-1.9478,-2.226,0.2782,51.045736,13.774872,116.89
82820400,0.0686,0.0392,-9.7766,-1.3217,-1.6,0.2782,51.045736,13.774872,116.88
82820400,0.1863,-0.0686,-9.5216,-1.2521,-1.7391,0.0695,51.045736,13.774872,116.88
82820400,-0.0686,-0.1078,-9.7864,-1.6,-2.5739,0.2782,51.045736,13.774872,116.88
82820400,0.2843,0.1863,-9.7962,-1.7391,-2.0173,0.0695,51.045742,13.774858,116.88
82820400,0,-0.402,-9.3353,-1.3913,-1.8782,0,51.045742,13.774858,116.88
82820500,-0.4412,-0.6766,-10.6101,-1.8782,-3.2,0.2086,51.045742,13.774858,116.87
82820500,0.4216,0.0294,-9.6197,-1.8086,-0.9739,0.2782,51.045742,13.774858,116.87
82820500,0.4608,-0.0098,-9.198,-1.3217,-1.6,0.1391,51.045742,13.774858,116.87
82820500,-0.755,-0.2157,-10.6003,-1.6,-2.9217,0.4173,51.045747,13.774846,116.87
82820500,0.0588,0,-9.551,-1.1826,-1.6695,0,51.045747,13.774846,116.87
82820600,0.7354,-0.2647,-9.3353,-0.626,-1.6695,0.0695,51.045747,13.774846,116.85
82820600,-0.3922,-0.3432,-10.1982,-1.3217,-2.8521,0.2782,51.045747,13.774846,116.85
82820600,-0.0784,0,-10.2669,-1.5304,-2.713,0.4173,51.045747,13.774846,116.85
82820600,0.4706,-0.4216,-9.404,-1.2521,-1.7391,0.0695,51.045752,13.774832,116.85
82820600,-0.6373,-0.1176,-10.6297,-1.2521,-3.0608,0.1391,51.045752,13.774832,116.85
82820700,-0.098,0.2843,-9.8452,-1.1826,-2.5739,0.3478,51.045752,13.774832,116.83
82820700,0.0784,-0.0392,-9.3451,-0.2086,-1.9478,0,51.045752,13.774832,116.83
82820700,-0.3432,-0.1961,-10.4434,-1.3913,-2.5739,0,51.045752,13.774832,116.83
82820700,0.4216,-0.353,-9.6197,-1.1826,-1.8782,0.3478,51.045757,13.774819,116.83
82820700,0.147,-0.0882,-9.6099,-1.1826,-2.226,0,51.045757,13.774819,116.83
82820800,-0.5589,-0.049,-10.1296,-1.1826,-2.9217,0.0695,51.045757,13.774819,116.82
82820800,0.1667,-0.2157,-10.1296,-1.6695,-1.9478,0.3478,51.045757,13.774819,116.82
82820800,0.402,-0.1372,-9.453,-1.2521,-2.226,0.0695,51.045757,13.774819,116.82
82820800,-0.1274,-0.0392,-10.3649,-1.3217,-2.4347,0.1391,51.045762,13.774806,116.82
82820800,-0.1765,-0.0196,-10.0806,-1.7391,-2.7826,0.4869,51.045762,13.774806,116.82
82820900,0.2255,-0.0882,-8.9823,-0.9739,-2.226,0.2782,51.045762,13.774806,116.81
82820900,-0.5197,-0.3235,-9.8158,-0.2782,-2.0173,0.1391,51.045762,13.774806,116.81
82820900,-0.1274,-0.0098,-9.9629,-1.3913,-2.4347,0.4173,51.045762,13.774806,116.81
82820900,0.2941,-0.3235,-9.2667,-0.8347,-2.226,0.2782,51.045767,13.774794,116.81
82820900,-0.3137,-0.0294,-9.7766,-1.6,-2.8521,0.1391,51.045767,13.774794,116.81
82821000,0.1863,-0.353,-9.9629,-1.3913,-2.9913,0.3478,51.045767,13.774794,116.8
82821000,-0.0392,-0.3726,-9.7374,-1.113,-2.5043,0.1391,51.045767,13.774794,116.8
82821000,-0.1667,-0.2255,-9.7864,-2.0173,-1.8782,0,51.045767,13.774794,116.8
82821000,0.147,-0.3039,-10.2473,-1.9478,-2.6434,0.2782,51.045772,13.774781,116.8
82821000,0.147,-0.0882,-9.3745,-1.2521,-2.1565,0.0695,51.045772,13.774781,116.8
82821100,-0.1176,-0.0196,-10.0217,-1.2521,-2.5739,0.0695,51.045772,13.774781,116.8
82821100,0.0882,-0.1765,-10.0217,-1.7391,-2.4347,0.3478,51.045772,13.774781,116.8
82821100,-0.2059,-0.2059,-9.3353,-1.2521,-2.0173,0.1391,51.045772,13.774781,116.8
82821100,0.1568,-0.2451,-9.8354,-1.113,-2.1565,0.2782,51.045777,13.774768,116.8
82821100,0.1667,-0.2745,-9.3745,-1.6695,-2.1565,0.3478,51.045777,13.774768,116.8
82821200,-0.1667,-0.2255,-9.4138,-1.4608,-2.0173,0.0695,51.045777,13.774768,116.79
82821200,-0.2647,-0.2157,-9.9825,-1.6,-1.9478,0.2086,51.045777,13.774768,116.79
82821200,-0.1078,-0.049,-9.9433,-1.1826,-2.3652,0.3478,51.045777,13.774768,116.79
82821200,0.0784,-0.0588,-9.4432,-0.9739,-1.7391,0.0695,51.045782,13.774755,116.79
82821200,-0.1667,-0.2745,-10.1786,-0.9739,-2.4347,0.2086,51.045782,13.774755,116.79
82821300,-0.0098,-0.3039,-10.1198,-1.1826,-2.2956,0.1391,51.045782,13.774755,116.78
82821300,0.3137,-0.3922,-9.2176,-1.3913,-1.3913,0.0695,51.045782,13.774755,116.78
82821300,-0.5785,-0.147,-9.9237,-1.3913,-2.6434,0.1391,51.045782,13.774755,116.78
82821300,-0.3039,-0.1961,-10.2571,-2.226,-2.713,0.4869,51.045787,13.774742,116.78
82821300,0.4412,-0.0784,-8.9823,-1.113,-1.3913,0.1391,51.045787,13.774742,116.78
82821400,-0.3039,0.2451,-10.3944,-1.113,-2.713,0.2086,51.045787,13.774742,116.75
82821400,0.1078,-0.0392,-9.5314,-0.9043,-2.4347,0.2086,51.045787,13.774742,116.75
82821400,0.0686,-0.4314,-9.3255,-0.8347,-2.0869,0,51.045787,13.774742,116.75
82821400,-0.5981,-0.0882,-10.5611,-0.8347,-2.7826,0.3478,51.045791,13.77473,116.75
82821400,0.147,-0.1274,-10.4434,-0.7652,-2.713,0.3478,51.045791,13.77473,116.75
82821500,0.2353,0,-9.3647,-0.1391,-1.4608,0.2086,51.045791,13.77473,116.73
82821500,-0.5981,-0.1078,-9.9335,-0.2782,-2.4347,0.2782,51.045791,13.77473,116.73
82821500,0.1863,0.0294,-9.9041,-0.5565,-1.5304,0.3478,51.045791,13.77473,116.73
82821500,-0.0196,-0.3235,-9.7276,-0.2086,-1.5304,-0.2782,51.045796,13.774717,116.73
82821500,0.2549,0.1667,-10.4826,-2.1565,-2.4347,0.2782,51.045796,13.774717,116.73
82821600,0.0784,-0.3334,-10.3551,-1.3217,-2.4347,0.2782,51.045796,13.774717,116.71
82821600,0.2745,-0.147,-9.6589,-0.0695,-1.6,-0.0695,51.045796,13.774717,116.71
82821600,-0.2353,-0.4118,-9.6981,-0.8347,-2.713,0.2782,51.045796,13.774717,116.71
82821600,0.2745,-0.1765,-10.1492,-0.7652,-2.1565,0.2782,51.045801,13.774705,116.71
82821600,0.2255,-0.2255,-9.6393,-0.1391,-2.7826,0.3478,51.045801,13.774705,116.71
82821700,-0.1961,-0.2157,-10.7572,-0.6956,-3.9652,0.2782,51.045801,13.774705,116.7
82821700,0.098,-0.1274,-9.0313,-0.9043,-2.9217,0.3478,51.045801,13.774705,116.7
82821700,-0.0098,-0.1568,-9.6687,-0.7652,-2.8521,0.2086,51.045801,13.774705,116.7
82821700,-0.2059,-0.2157,-10.1002,-0.4869,-3.4086,0.3478,51.045806,13.774692,116.7
82821700,-0.1667,-0.0588,-10.1296,-0.9043,-3.5478,0.2086,51.045806,13.774692,116.7
82821800,-0.0784,-0.2059,-9.9237,-0.7652,-2.7826,0.4173,51.045806,13.774692,116.69
82821800,0.147,-0.5197,-10.0512,-0.626,-2.9913,0.2782,51.045806,13.774692,116.69
82821800,-0.2451,-0.3922,-9.0313,-0.626,-2.2956,0.2086,51.045806,13.774692,116.69
82821800,-0.3235,-0.2941,-9.9237,-1.0434,-2.9217,0.2086,51.045811,13.77468,116.69
82821800,0.0392,-0.2647,-10.1982,-1.3217,-2.0869,0.2782,51.045811,13.77468,116.69
82821900,0.2059,0.0294,-9.3843,-0.5565,-1.6695,0.1391,51.045811,13.77468,116.68
82821900,-0.2255,0,-9.2667,-0.8347,-2.0869,0.0695,51.045811,13.77468,116.68
82821900,-0.1078,-0.1667,-9.5707,-1.0434,-2.3652,0.1391,51.045811,13.77468,116.68
82821900,0.1078,-0.451,-9.4824,-0.8347,-1.6,0.1391,51.045816,13.774668,116.68
82821900,-0.5001,-0.1078,-10.1884,-1.1826,-1.9478,0.2782,51.045816,13.774668,116.68
82822000,-0.0294,-0.2059,-10.0217,-1.3913,-2.0869,0.2782,51.045816,13.774668,116.66
82822000,0.0588,-0.3137,-8.9823,-1.1826,-1.2521,0,51.045816,13.774668,116.66
82822000,-0.2255,-0.1078,-10.0413,-1.3913,-1.9478,0.0695,51.045816,13.774668,116.66
82822000,0.0196,-0.1372,-9.6883,-1.3217,-1.113,0.2782,51.045821,13.774655,116.66
82822000,-0.0098,-0.5491,-9.7864,-0.7652,-0.9043,0,51.045821,13.774655,116.66
82822100,-0.1176,-0.7746,-9.7079,-1.7391,-1.4608,0.2782,51.045821,13.774655,116.63
82822100,0.0882,-0.2451,-9.6001,-2.1565,-0.9739,0.2782,51.045821,13.774655,116.63
82822100,0.2941,-0.1078,-9.3353,-1.8086,-0.8347,0.0695,51.045821,13.774655,116.63
82822100,-0.1667,-0.1961,-10.208,-1.8086,-2.226,0.2782,51.045826,13.774643,116.63
82822100,0.1078,0,-9.4432,-1.6,-1.0434,0.2086,51.045826,13.774643,116.63
82822200,-0.2451,-0.3922,-10.2277,-1.5304,-2.0869,0,51.045826,13.774643,116.61
82822200,-0.1372,-0.1667,-9.6393,-1.4608,-2.1565,0.2782,51.045826,13.774643,116.61
82822200,0.5197,0.0098,-8.8842,-0.7652,-1.3913,-0.0695,51.045826,13.774643,116.61
82822200,-0.5589,-0.1568,-10.7082,-1.0434,-2.713,0,51.04583,13.774631,116.61
82822200,0.0686,-0.4412,-9.6883,-1.3913,-1.9478,0.3478,51.04583,13.774631,116.61
82822300,0.5785,-0.2157,-9.1686,-1.1826,-1.6,0.1391,51.04583,13.774631,116.58
82822300,-0.2157,-0.0882,-10.1688,-1.113,-2.5739,0.2782,51.04583,13.774631,116.58
82822300,0.0588,-0.1176,-10.0512,-1.3217,-2.3652,0.2086,51.04583,13.774631,116.58
82822300,0.0392,-0.7648,-9.3255,-1.2521,-2.0869,-0.0695,51.045834,13.774619,116.58
82822300,-0.4804,-0.3334,-10.3453,-1.8086,-2.8521,0.2086,51.045834,13.774619,116.58
82822400,0.0098,-0.1078,-9.7472,-1.9478,-2.4347,0.2086,51.045834,13.774619,116.55
82822400,-0.1078,-0.2353,-9.5608,-1.3913,-1.8782,0,51.045834,13.774619,116.55
82822400,0.3235,-0.5099,-8.9725,-1.6,-1.2521,0.2086,51.045834,13.774619,116.55
82822400,0.3922,-0.353,-9.8158,-1.0434,-1.9478,-0.0695,51.045839,13.774607,116.55
82822400,-0.657,-0.098,-9.9237,-1.0434,-2.2956,-0.0695,51.045839,13.774607,116.55
82822500,0.4216,0.0686,-9.6589,-1.6,-2.0869,0.2782,51.045839,13.774607,116.51
82822500,0.3726,-0.1274,-9.2569,-0.9043,-1.5304,0,51.045839,13.774607,116.51
82822500,-0.6766,-0.5393,-9.6687,-1.1826,-2.226,-0.0695,51.045839,13.774607,116.51
82822500,0.2941,0.0294,-9.3647,-1.8782,-1.6695,0.2782,51.045843,13.774594,116.51
82822500,0.2157,0.2157,-10.1394,-0.9739,-1.9478,-0.0695,51.045843,13.774594,116.51
82822600,-0.4216,-0.3137,-9.6687,-1.113,-1.2521,0.1391,51.045843,13.774594,116.52
82822600,-0.1667,-0.0098,-9.4824,-1.3217,-1.9478,0.1391,51.045843,13.774594,116.52
82822600,0.2451,-0.4608,-9.2176,-0.8347,-1.0434,-0.0695,51.045843,13.774594,116.52
82822600,-0.0196,-0.2843,-9.9531,-1.113,-1.8782,0.0695,51.045847,13.774582,116.52
82822600,0.4903,-0.3922,-10.0413,-0.5565,-1.3913,0.1391,51.045847,13.774582,116.52
82822700,-0.5785,-0.2843,-10.2669,-1.113,-2.226,0.0695,51.045847,13.774582,116.5
82822700,0.1568,-0.3432,-9.3451,-1.8086,-1.5304,0.1391,51.045847,13.774582,116.5
82822700,0.2353,-0.2353,-9.3647,-1.2521,-1.8782,0,51.045847,13.774582,116.5
82822700,-0.049,0.0392,-9.5805,-1.2521,-2.0173,0.0695,51.045852,13.77457,116.5
82822700,0.0098,-0.0392,-10.4336,-1.1826,-2.1565,0.0695,51.045852,13.77457,116.5
82822800,0.0392,-0.3628,-9.3843,-0.9043,-1.8782,0,51.045852,13.77457,116.47
82822800,-0.3824,-0.2255,-9.9237,-1.9478,-3.2,0.2086,51.045852,13.77457,116.47
82822800,0.3726,-0.1765,-9.3549,-1.5304,-1.3217,0.0695,51.045852,13.77457,116.47
82822800,-0.3628,-0.1961,-9.855,-0.9043,-2.1565,-0.0695,51.045857,13.774558,116.47
82822800,0.2451,-0.1176,-10.0413,-1.4608,-2.4347,0.3478,51.045857,13.774558,116.47
82822900,0.451,-0.2059,-8.9431,-0.9739,-2.0173,0.1391,51.045857,13.774558,116.44
82822900,-0.3432,-0.4412,-10.061,-1.5304,-2.5043,0.0695,51.045857,13.774558,116.44
82822900,-0.2451,-0.2941,-10.208,-1.8782,-2.226,0.2782,51.045857,13.774558,116.44
82822900,0.2745,-0.2059,-9.2176,-1.4608,-1.7391,0,51.045861,13.774545,116.44
82822900,-0.4608,-0.0196,-10.1688,-1.4608,-2.226,-0.0695,51.045861,13.774545,116.44
82823000,-0.0686,-0.0882,-8.9823,-1.4608,-1.4608,0.0695,51.045861,13.774545,116.41
82823000,-0.1863,-0.0784,-9.9433,-1.2521,-1.7391,0,51.045861,13.774545,116.41
82823000,0.147,-0.1568,-9.7766,-1.3217,-1.8782,0.1391,51.045861,13.774545,116.41
82823000,0.1274,-0.5785,-9.4236,-0.9043,-1.0434,0.0695,51.045866,13.774533,116.41
82823000,-0.5197,-0.0882,-9.8354,-1.6,-2.1565,0.0695,51.045866,13.774533,116.41
82823100,0.3922,0.0588,-9.5216,-1.5304,-0.9739,0.1391,51.045866,13.774533,116.37
82823100,0.2451,-0.1372,-9.0607,-0.9739,-1.113,-0.1391,51.045866,13.774533,116.37
82823100,-0.353,-0.2647,-9.855,-1.3913,-1.1826,0.0695,51.045866,13.774533,116.37
82823100,0.1863,-0.3235,-9.1784,-1.3217,-1.0434,0.1391,51.04587,13.774521,116.37
82823100,-0.2843,-0.049,-9.7276,-0.9739,-1.5304,-0.2782,51.04587,13.774521,116.37
82823200,-0.1078,-0.0392,-9.9237,-1.1826,-1.4608,0,51.04587,13.774521,116.33
82823200,0.2059,0.049,-9.2667,-0.9043,-0.8347,-0.0695,51.04587,13.774521,116.33
82823200,-0.1667,-0.1863,-10.1492,-0.8347,-1.3217,0,51.04587,13.774521,116.33
82823200,0.4118,-0.5883,-9.8158,-1.0434,-1.6,0.1391,51.045874,13.774509,116.33
82823200,0.2157,-0.402,-9.1588,-0.4869,-0.8347,-0.0695,51.045874,13.774509,116.33
82823300,-0.3922,-0.3432,-9.9727,-1.2521,-2.0173,0.2086,51.045874,13.774509,116.31
82823300,0.1274,-0.1078,-9.7472,-1.5304,-1.4608,0.1391,51.045874,13.774509,116.31
82823300,-0.0784,-0.0784,-10.3944,-1.1826,-2.0173,-0.0695,51.045874,13.774509,116.31
82823300,0.0882,-0.3726,-9.5412,-1.0434,-1.9478,0,51.045879,13.774497,116.31
82823300,0.5785,-0.4706,-9.4628,-0.7652,-2.0869,0,51.045879,13.774497,116.31
82823300,-0.6373,-0.1961,-10.2767,-1.2521,-2.4347,0.0695,51.045879,13.774497,116.28
82823400,0.098,-0.4804,-9.6099,-1.2521,-2.0869,0.1391,51.045879,13.774497,116.28
82823400,0.3334,-0.0098,-9.8256,-0.8347,-2.226,-0.0695,51.045879,13.774497,116.28
82823400,-0.2647,0.0686,-10.3649,-0.9739,-3.1304,0,51.045879,13.774497,116.28
82823400,0.1961,-0.2451,-9.1588,-1.113,-2.5739,0.1391,51.045883,13.774485,116.28
82823400,-0.4608,-0.4314,-10.5611,-0.7652,-2.8521,0,51.045883,13.774485,116.25
82823500,0.098,-0.402,-9.5314,-1.3913,-2.6434,0.0695,51.045883,13.774485,116.25
82823500,0.4804,-0.3922,-9.3549,-1.1826,-1.4608,0.0695,51.045883,13.774485,116.25
82823500,-0.5491,-0.0392,-10.6493,-1.7391,-2.8521,0.0695,51.045883,13.774485,116.25
82823500,0.1372,-0.049,-9.6589,-2.0869,-2.7826,0.2086,51.045888,13.774473,116.25
82823500,-0.0098,-0.5099,-9.8158,-1.5304,-2.2956,-0.2086,51.045888,13.774473,116.22
82823600,-0.2157,-0.7354,-9.1686,-0.6956,-2.0869,-0.1391,51.045888,13.774473,116.22
82823600,-0.3432,-0.2353,-8.8352,-1.4608,-2.7826,0.0695,51.045888,13.774473,116.22
82823600,-0.6373,-0.0882,-10.4924,-1.8782,-2.5739,0.2086,51.045888,13.774473,116.22
82823600,0.2255,-0.1667,-10.463,-1.6,-2.8521,0.0695,51.045892,13.774461,116.22
82823600,0.1078,0.2549,-9.3157,-1.0434,-1.8782,-0.1391,51.045892,13.774461,116.21
82823700,-1.1473,-0.3824,-9.8354,-1.3217,-3.0608,0.2086,51.045892,13.774461,116.21
82823700,-0.1765,-0.5589,-9.0411,-2.226,-2.4347,0.2782,51.045892,13.774461,116.21
82823700,-0.2941,-0.5981,-10.11,-1.4608,-2.2956,0.0695,51.045892,13.774461,116.21
82823700,-0.706,0.0098,-10.2375,-2.8521,-2.4347,0.2782,51.045897,13.774449,116.21
82823700,-0.1667,-0.2843,-10.1296,-1.4608,-3.4782,0.0695,51.045897,13.774449,116.19
82823800,-1.0296,-0.0588,-9.855,-1.113,-2.7826,0,51.045897,13.774449,116.19
82823800,0.0294,-0.2549,-9.3745,-1.5304,-2.6434,0.1391,51.045897,13.774449,116.19
82823800,0.1568,-0.2843,-9.7962,-1.2521,-1.8782,-0.0695,51.045897,13.774449,116.19
82823800,-0.9315,-0.2549,-10.6984,-0.8347,-2.7826,-0.0695,51.045901,13.774438,116.19
82823800,-0.2941,-0.3039,-9.6785,-1.6,-3.0608,0.2782,51.045901,13.774438,116.18
82823900,-0.0882,-0.2549,-8.845,-1.3217,-2.226,-0.0695,51.045901,13.774438,116.18
82823900,-0.5687,-0.2255,-9.7864,-1.9478,-2.6434,0.1391,51.045901,13.774438,116.18
82823900,-0.0784,-0.1961,-9.855,-2.226,-2.1565,0.1391,51.045901,13.774438,116.18
82823900,-1.4709,-0.5099,-10.718,-1.3217,-4.313,0,51.045905,13.774427,116.18
82823900,-0.2157,-0.2843,-10.0904,-2.226,-3.2695,0.2086,51.045905,13.774427,116.14
82824000,-0.1274,0.0098,-9.1392,-1.7391,-3.1304,0.0695,51.045905,13.774427,116.14
82824000,-0.5687,0.0784,-10.5022,-1.6,-3.3391,0.0695,51.045905,13.774427,116.14
82824000,-0.2255,0.098,-11.0906,-0.5565,-3.4086,0.0695,51.045905,13.774427,116.14
82824000,-0.5687,-0.2941,-9.6099,0.8347,-3.2,-0.1391,51.04591,13.774415,116.14
82824000,-0.3824,-0.2451,-9.6197,-0.4173,-4.1739,-0.0695,51.04591,13.774415,116.11
82824100,0.0196,-0.2941,-8.3547,-0.6956,-2.8521,-0.0695,51.04591,13.774415,116.11
82824100,-0.9217,-0.2549,-9.9727,-1.0434,-4.1739,0.1391,51.04591,13.774415,116.11
82824100,-0.0882,0.5785,-10.6199,-0.7652,-4.7304,0.2782,51.04591,13.774415,116.11
82824100,-0.451,-0.4216,-8.5312,-0.8347,-3.4782,0,51.045915,13.774404,116.11
82824100,-1.3826,-0.5393,-9.2961,-2.5043,-1.9478,0.1391,51.045915,13.774404,116.08
82824200,-0.4314,-0.9119,-8.59,-2.0869,-2.1565,0.2086,51.045915,13.774404,116.08
82824200,-0.7354,-0.7158,-10.3159,-2.3652,-1.5304,0.0695,51.045915,13.774404,116.08
82824200,-0.402,-0.1274,-9.8943,-2.713,-0.6956,0.0695,51.045915,13.774404,116.08
82824200,-0.0686,-0.0098,-8.5999,-1.6695,-0.2782,-0.2086,51.045919,13.774392,116.08
82824200,-1.1473,0.3726,-10.3846,-1.3913,-1.8782,-0.2782,51.045919,13.774392,116.05
82824300,0.2451,0.3235,-9.2961,-0.9739,0.2086,0.0695,51.045919,13.774392,116.05
82824300,0.1372,-0.3922,-9.3647,-0.626,0.9739,-0.0695,51.045919,13.774392,116.05
82824300,-0.0196,-0.755,-10.3257,-0.9043,-0.7652,0.3478,51.045919,13.774392,116.05
82824300,0.1961,0.049,-9.502,-1.5304,-0.2086,0.2086,51.045924,13.774381,116.05
82824300,-1.4316,0.1667,-9.8354,-2.8521,-1.113,0.4173,51.045924,13.774381,116.02
82824400,-0.1274,0.2451,-10.1786,-1.6,-1.0434,0.3478,51.045924,13.774381,116.02
82824400,0.3628,-0.5001,-9.3059,-0.3478,-1.6695,-0.1391,51.045924,13.774381,116.02
82824400,-0.3137,-0.451,-9.8844,-1.3217,-2.226,-0.0695,51.045924,13.774381,116.02
82824400,-0.2255,-0.5883,-8.796,-3.1304,-3.4086,0.1391,51.045929,13.774369,116.02
82824400,-0.6766,-0.2745,-8.9333,-2.1565,-3.4782,-0.4869,51.045929,13.774369,115.99
82824500,-0.5785,-0.2353,-10.2963,-2.9217,-3.3391,0.0695,51.045929,13.774369,115.99
82824500,-0.6471,0.2059,-9.9727,-1.8086,-1.9478,-0.2086,51.045929,13.774369,115.99
82824500,-1.7748,-0.1078,-10.208,-1.5304,-2.9217,-0.1391,51.045929,13.774369,115.99
82824500,-0.2843,-0.1961,-9.8452,-1.7391,-2.3652,0,51.045933,13.774356,115.99
82824500,-0.0392,-0.4903,-9.3059,-1.3217,-0.7652,-0.0695,51.045933,13.774356,115.96
82824600,-0.9315,-0.1372,-10.7866,-1.7391,-2.3652,0.1391,51.045933,13.774356,115.96
82824600,0.3432,-0.1667,-9.1588,-1.7391,-0.4173,0.1391,51.045933,13.774356,115.96
82824600,-0.7256,-0.1568,-9.9433,-1.6,-1.3913,-0.1391,51.045933,13.774356,115.96
82824600,0.9119,0.2451,-10.1492,-1.6695,-1.2521,-0.0695,51.045937,13.774344,115.96
82824600,0.0784,-0.5197,-9.7668,-0.626,-1.2521,-0.2086,51.045937,13.774344,115.94
82824700,-1.3042,0.1863,-9.6883,-1.7391,-0.6956,-0.1391,51.045937,13.774344,115.94
82824700,-0.0882,-0.5785,-9.7177,-0.5565,-2.3652,-0.0695,51.045937,13.774344,115.94
82824700,-0.3726,-0.4804,-9.7177,-0.9043,-2.6434,-0.1391,51.045937,13.774344,115.94
82824700,-0.6373,0.3039,-9.7766,-2.0869,-2.8521,0.0695,51.045942,13.774333,115.94
82824700,0.0294,0.0392,-9.4628,-1.4608,-1.9478,0,51.045942,13.774333,115.92
82824800,-0.755,-0.4608,-10.5709,-0.7652,-3.3391,-0.0695,51.045942,13.774333,115.92
82824800,-0.0392,-0.4412,-9.5412,-1.3217,-2.4347,-0.0695,51.045942,13.774333,115.92
82824800,0.0784,-0.3628,-8.845,-0.4869,-2.6434,-0.3478,51.045942,13.774333,115.92
82824800,-1.1767,-0.1667,-9.9629,-1.7391,-2.9217,0.0695,51.045947,13.774321,115.92
82824800,-0.3039,-0.4118,-10.2375,-1.6695,-2.1565,0,51.045947,13.774321,115.89
82824900,-0.706,-0.8139,-10.1394,-0.2086,-2.5739,-0.2086,51.045947,13.774321,115.89
82824900,-0.6766,-0.0294,-9.4824,-1.1826,-2.4347,0,51.045947,13.774321,115.89
82824900,-0.2549,0.3726,-8.6489,-1.6695,-1.9478,-0.0695,51.045947,13.774321,115.89
82824900,-1.059,-0.1961,-10.1688,-0.6956,-2.6434,-0.1391,51.045951,13.77431,115.89
82824900,-0.2255,-0.7354,-10.6689,-1.1826,-1.6,0.2086,51.045951,13.77431,115.86
82825000,0.1863,-0.2059,-8.7764,-1.1826,-0.9739,0,51.045951,13.77431,115.86
82825000,-0.4903,-0.1863,-9.9335,-1.9478,-2.2956,0.1391,51.045951,13.77431,115.86
82825000,-0.0196,-0.353,-8.8352,-1.5304,-1.3217,0.0695,51.045951,13.77431,115.86
82825000,-0.3432,-0.3432,-10.1394,-0.626,-1.3217,-0.0695,51.045955,13.774298,115.86
82825000,-0.1667,0.049,-9.9335,-1.2521,-1.8782,0.0695,51.045955,13.774298,115.82
82825100,-0.1667,-0.0098,-9.4726,-1.113,-1.3913,-0.1391,51.045955,13.774298,115.82
82825100,-0.2647,-0.1765,-9.3157,-1.1826,-1.3913,0.0695,51.045955,13.774298,115.82
82825100,-0.1765,-0.2157,-8.8744,-1.1826,-0.9043,-0.0695,51.045955,13.774298,115.82
82825100,-0.7942,-0.353,-10.3944,-1.1826,-1.7391,0.0695,51.045959,13.774286,115.82
82825100,0.4216,-0.0392,-9.6099,-0.9739,-1.1826,0,51.045959,13.774286,115.8
82825200,0.1372,0.0196,-9.3059,-0.4173,-1.3217,-0.1391,51.045959,13.774286,115.8
82825200,-0.2059,-0.4412,-9.7766,-0.7652,-2.0869,0,51.045959,13.774286,115.8
82825200,-0.4216,-0.3726,-9.5707,-1.6,-1.3913,0.1391,51.045959,13.774286,115.8
82825200,-0.2059,-0.7648,-9.9923,-1.0434,-1.6,0,51.045964,13.774275,115.8
82825200,0.049,-0.1568,-9.8158,-1.3217,-1.4608,0.0695,51.045964,13.774275,115.77
82825300,-0.0784,0.1176,-9.2863,-1.113,-1.2521,-0.2086,51.045964,13.774275,115.77
82825300,-0.3235,0,-9.9237,-1.5304,-1.5304,-0.2086,51.045964,13.774275,115.77
82825300,-0.1078,-0.6177,-9.5118,-1.4608,-1.1826,-0.1391,51.045964,13.774275,115.77
82825300,-0.2549,-0.4314,-10.1884,-1.0434,-2.0173,-0.0695,51.045969,13.774263,115.77
82825300,0.0882,0,-9.8158,-1.4608,-2.0869,-0.1391,51.045969,13.774263,115.74
82825400,-0.1274,0.0882,-9.8648,-1.4608,-2.2956,-0.2086,51.045969,13.774263,115.74
82825400,-0.2941,0,-9.4726,-1.3217,-1.6695,0.2086,51.045969,13.774263,115.74
82825400,-0.2451,-0.0686,-10.1688,-0.5565,-2.1565,-0.2086,51.045969,13.774263,115.74
82825400,-0.3824,-0.4216,-10.1884,-0.1391,-2.226,-0.2782,51.045973,13.774251,115.74
82825400,-0.098,-0.1078,-9.1196,-0.9043,-2.1565,-0.2782,51.045973,13.774251,115.72
82825500,0.049,-0.0392,-9.9629,-0.9043,-2.5043,-0.1391,51.045973,13.774251,115.72
82825500,-0.1568,-0.0588,-10.1884,-1.4608,-2.5739,-0.2782,51.045973,13.774251,115.72
82825500,-0.3137,0.049,-9.6197,-1.6695,-2.0869,-0.2782,51.045973,13.774251,115.72
82825500,-0.353,0,-10.3453,-1.3913,-3.2,-0.4869,51.045978,13.774239,115.72
82825500,0.1176,0.1176,-9.5412,-1.2521,-2.6434,-0.4869,51.045978,13.774239,115.71
82825600,-0.0588,-0.0098,-8.9136,-1.3913,-2.4347,-0.5565,51.045978,13.774239,115.71
82825600,-0.2647,-0.4314,-10.4336,-1.4608,-3.2695,-0.5565,51.045978,13.774239,115.71
82825600,0.1078,-0.0784,-9.0313,-1.4608,-1.6695,-0.626,51.045978,13.774239,115.71
82825600,-0.5197,-0.0588,-10.2277,-2.0173,-2.7826,-0.4173,51.045982,13.774227,115.71
82825600,0.0588,-0.0294,-9.7668,-1.8086,-2.226,-0.626,51.045982,13.774227,115.69
82825700,-0.5099,-0.353,-9.6393,-0.9043,-2.713,-0.626,51.045982,13.774227,115.69
82825700,0.1274,-0.1667,-10.1296,-1.7391,-2.4347,-0.3478,51.045982,13.774227,115.69
82825700,-0.0588,-0.0882,-9.2667,-2.0869,-2.2956,-0.4173,51.045982,13.774227,115.69
82825700,-0.5393,-0.1078,-10.5905,-2.1565,-3.4782,-0.4869,51.045987,13.774215,115.69
82825700,-0.1274,-0.0882,-9.0313,-2.0173,-2.1565,-0.4869,51.045987,13.774215,115.66
82825800,-0.3824,-0.3235,-9.9923,-1.8086,-2.9913,-0.626,51.045987,13.774215,115.66
82825800,0.5981,-0.4314,-10.512,-2.0173,-2.6434,-0.5565,51.045987,13.774215,115.66
82825800,-0.0392,-0.2451,-9.7668,-2.226,-2.713,-0.4869,51.045987,13.774215,115.66
82825800,-0.3628,-0.1667,-9.6197,-2.7826,-2.5739,-0.3478,51.045991,13.774204,115.66
82825800,-0.1274,-0.2451,-9.4922,-2.3652,-3.2,-0.2782,51.045991,13.774204,115.64
82825900,-0.2451,-0.402,-9.502,-1.8782,-2.0869,-0.6956,51.045991,13.774204,115.64
82825900,0.049,-0.3628,-10.2473,-2.5043,-3.2,-0.3478,51.045991,13.774204,115.64
82825900,0.4608,-0.2255,-9.0313,-2.4347,-1.3913,-0.626,51.045991,13.774204,115.64
82825900,-0.0882,0.1078,-9.5903,-2.5043,-2.4347,-0.6956,51.045996,13.774192,115.64
82825900,0.2843,0.098,-9.1588,-2.4347,-1.9478,-0.6956,51.045996,13.774192,115.61
82826000,-0.2353,-0.0392,-9.6589,-2.3652,-1.7391,-0.6956,51.045996,13.774192,115.61
82826000,-0.657,-0.3922,-10.2963,-3.3391,-1.9478,-0.5565,51.045996,13.774192,115.61
82826000,0.0686,-0.1667,-9.0117,-2.5739,-0.5565,-0.4869,51.045996,13.774192,115.61
82826000,-0.3922,0.1274,-9.3255,-1.8782,-0.9739,-0.6956,51.046001,13.77418,115.61
82826000,-0.0784,0.0588,-9.3941,-2.2956,-1.113,-0.5565,51.046001,13.77418,115.57
82826100,0.1667,-0.2157,-9.0313,-1.7391,0.2086,-0.626,51.046001,13.77418,115.57
82826100,-0.3824,-0.1568,-9.9727,-2.0869,-0.2086,-0.626,51.046001,13.77418,115.57
82826100,0.353,0.0098,-9.7766,-2.226,-0.3478,-0.4173,51.046001,13.77418,115.57
82826100,0.3432,0.1961,-8.7371,-1.8782,0.8347,-0.626,51.046005,13.774169,115.57
82826100,-0.2843,-0.0392,-9.8158,-1.8086,-0.2086,-0.4869,51.046005,13.774169,115.53
82826200,0.4706,-0.0588,-10.2473,-1.3913,-0.626,-0.5565,51.046005,13.774169,115.53
82826200,0.6373,-0.0588,-9.149,-1.0434,-0.4173,-0.626,51.046005,13.774169,115.53
82826200,-0.0098,-0.0686,-10.3257,-1.8086,-0.9043,-0.4869,51.046005,13.774169,115.53
82826200,0.5491,0.0098,-9.6981,-1.2521,-1.6,-0.4173,51.04601,13.774157,115.53
82826200,0.5393,-0.0882,-8.8744,-0.8347,-0.3478,-0.6956,51.04601,13.774157,115.5
82826300,-0.2255,-0.1765,-10.6297,-1.5304,-2.0869,-0.3478,51.04601,13.774157,115.5
82826300,0.7354,0,-10.11,-1.113,-1.4608,-0.3478,51.04601,13.774157,115.5
82826300,0.706,-0.0784,-10.0315,-0.626,-1.7391,-0.3478,51.04601,13.774157,115.5
82826300,-0.3824,0.0392,-10.0806,-1.6,-3.4086,-0.3478,51.046015,13.774146,115.5
82826300,0.5197,-0.2157,-10.2571,-1.113,-3.6173,-0.1391,51.046015,13.774146,115.45
82826400,0.6766,-0.2451,-9.2274,-0.5565,-2.0173,-0.4173,51.046015,13.774146,115.45
82826400,-0.706,-0.098,-10.6297,-0.9043,-3.9652,-0.4173,51.046015,13.774146,115.45
82826400,0.2255,0.0686,-10.0904,-1.8086,-3.1304,-0.2782,51.046015,13.774146,115.45
82826400,0.6668,0.098,-9.6393,-1.3217,-3.0608,-0.4173,51.046019,13.774134,115.45
82826400,-0.1078,-0.3824,-9.1392,-0.9043,-2.9217,-0.5565,51.046019,13.774134,115.42
82826500,-0.6177,-0.3628,-10.0413,-1.113,-2.6434,-0.3478,51.046019,13.774134,115.42
82826500,-0.2647,0.1765,-10.1198,-1.6,-2.713,-0.2086,51.046019,13.774134,115.42
82826500,0.402,0.4216,-9.0117,-1.0434,-2.1565,-0.4173,51.046019,13.774134,115.42
82826500,0.451,-0.1274,-9.7177,-0.9043,-2.0869,-0.5565,51.046024,13.774123,115.42
82826500,-0.2059,-0.5589,-8.8156,-0.8347,-1.8782,-0.6956,51.046024,13.774123,115.38
82826600,0.4412,-0.4412,-8.9136,-1.0434,-1.2521,-0.4869,51.046024,13.774123,115.38
82826600,0.3137,0.2353,-10.4042,-0.7652,-2.4347,-0.4869,51.046024,13.774123,115.38
82826600,-0.2353,0.2843,-9.9923,-0.9739,-2.226,-0.5565,51.046024,13.774123,115.38
82826600,0.1274,-0.0686,-10.0708,-1.4608,-1.113,-0.3478,51.046028,13.774111,115.38
82826600,-0.8237,-0.3628,-9.3353,-1.113,-2.4347,-0.4869,51.046028,13.774111,115.36
82826700,-0.4216,-0.4216,-9.2961,-0.626,-2.0869,-0.2782,51.046028,13.774111,115.36
82826700,0.2059,-0.353,-10.1296,-0.2782,-1.0434,-0.3478,51.046028,13.774111,115.36
82826700,-0.049,0.2059,-10.6003,-0.9043,-2.0173,-0.5565,51.046028,13.774111,115.36
82826700,0.6864,0.3235,-10.0904,-1.0434,-1.4608,-0.4869,51.046033,13.7741,115.36
82826700,-0.2647,-0.1667,-10.1296,-1.1826,-3.2695,-0.4173,51.046033,13.7741,115.33
82826800,-0.2843,-0.1078,-9.1098,-1.6,-2.4347,-0.2782,51.046033,13.7741,115.33
82826800,-0.1372,-0.353,-9.2176,-1.113,-2.5043,-0.2782,51.046033,13.7741,115.33
82826800,-0.5295,-0.2843,-10.512,-1.113,-3.5478,-0.1391,51.046033,13.7741,115.33
82826800,-0.1667,-0.1765,-10.11,-0.9043,-2.226,-0.1391,51.046038,13.774088,115.33
82826800,-0.049,-0.1274,-9.8648,-0.4869,-2.713,-0.2782,51.046038,13.774088,115.3
82826900,0.2843,0.1568,-9.4138,-0.3478,-2.713,-0.5565,51.046038,13.774088,115.3
82826900,0.1863,0.1765,-9.7962,-0.0695,-2.6434,-0.2782,51.046038,13.774088,115.3
82826900,-0.3922,-0.1372,-10.4238,-1.1826,-4.1043,-0.4173,51.046038,13.774088,115.3
82826900,-0.3235,-0.1961,-10.0904,-1.3217,-3.2695,-0.2782,51.046042,13.774077,115.3
82826900,-0.657,-0.353,-9.502,-1.0434,-3.2,-0.4173,51.046042,13.774077,115.27
82827000,-0.5883,-0.4903,-9.6589,-0.626,-3.4086,-0.0695,51.046042,13.774077,115.27
82827000,-0.3039,-0.4118,-10.4434,-0.6956,-2.5043,-0.3478,51.046042,13.774077,115.27
82827000,-0.1176,-0.3922,-10.0021,-0.9739,-3.0608,-0.1391,51.046042,13.774077,115.27
82827000,0.5295,-0.0686,-9.3549,-0.9043,-1.4608,-0.5565,51.046047,13.774065,115.27
82827000,-0.2843,0.2353,-9.8746,-1.0434,-2.3652,-0.4869,51.046047,13.774065,115.25
82827100,-0.3726,-0.4314,-9.453,-1.6695,-2.4347,-0.4173,51.046047,13.774065,115.25
82827100,-0.4216,-0.5589,-8.9333,-1.7391,-1.7391,-0.4869,51.046047,13.774065,115.25
82827100,-0.5393,-0.4903,-9.8844,-0.9043,-2.226,-0.2782,51.046047,13.774065,115.25
82827100,0.2157,-0.2059,-9.8256,-0.3478,-1.113,-0.3478,51.046051,13.774054,115.25
82827100,-0.0686,-0.2451,-10.1786,-0.2782,-2.1565,-0.5565,51.046051,13.774054,115.23
82827200,0.1274,0.2255,-8.9038,-0.4173,-1.1826,-0.5565,51.046051,13.774054,115.23
82827200,-0.2843,0.0098,-9.855,-1.113,-2.226,-0.4869,51.046051,13.774054,115.23
82827200,-0.2255,0.049,-10.5807,-1.6695,-2.5739,-0.2782,51.046051,13.774054,115.23
82827200,-0.1078,-0.1078,-9.4334,-1.1826,-1.1826,-0.3478,51.046056,13.774042,115.23
82827200,-0.0392,-0.2059,-9.6099,-0.9043,-2.0173,-0.4173,51.046056,13.774042,115.21
82827300,0,-0.1568,-9.9531,0,-0.9043,-0.3478,51.046056,13.774042,115.21
82827300,-0.3137,-0.6177,-9.5118,-0.1391,-1.9478,-0.5565,51.046056,13.774042,115.21
82827300,0.7158,-0.3235,-9.8648,-1.4608,-1.6695,-0.4869,51.046056,13.774042,115.21
82827300,0.0294,0.1863,-11.3161,-1.1826,-2.7826,-0.5565,51.046061,13.774031,115.21
82827300,-0.4706,0.1863,-10.3453,-1.4608,-3.9652,-0.3478,51.046061,13.774031,115.18
82827400,-0.1863,-0.2745,-9.0117,-1.3913,-2.3652,-0.2782,51.046061,13.774031,115.18
82827400,-0.5001,-0.2647,-10.0315,-0.7652,-3.2,-0.3478,51.046061,13.774031,115.18
82827400,0.1863,-0.706,-9.404,-0.5565,-2.226,-0.3478,51.046061,13.774031,115.18
82827400,0.2941,-0.1961,-10.2669,-0.9739,-3.0608,-0.4173,51.046067,13.77402,115.18
82827400,0.5197,0.4314,-10.208,-0.7652,-2.5043,-0.4173,51.046067,13.77402,115.13
82827500,0.0294,0.2549,-10.1884,-1.2521,-4.5217,-0.4869,51.046067,13.77402,115.13
82827500,-0.3726,0.0588,-9.6197,-1.4608,-4.0347,-0.4173,51.046067,13.77402,115.13
82827500,-0.4216,-0.6668,-10.0512,-1.6,-4.1739,-0.2782,51.046067,13.77402,115.13
82827500,-0.4412,-0.6177,-10.3944,-1.5304,-3.6173,-0.1391,51.046072,13.774009,115.13
82827500,0.0686,-0.098,-9.4334,-1.113,-2.5739,-0.0695,51.046072,13.774009,115.11
82827600,0.1568,-0.0098,-9.9531,-0.9043,-3.2,-0.5565,51.046072,13.774009,115.11
82827600,-0.3039,0.5295,-10.2963,-1.5304,-4.1043,-0.626,51.046072,13.774009,115.11
82827600,0.049,0.1667,-10.0315,-1.6695,-3.4782,-0.626,51.046072,13.774009,115.11
82827600,-0.1568,-0.4903,-9.3157,-2.0173,-3.5478,-0.5565,51.046076,13.773997,115.11
82827600,-0.6471,-0.353,-10.1198,-2.5739,-3.2,-0.2086,51.046076,13.773997,115.1
82827700,-0.3432,-0.4412,-9.757,-1.9478,-2.5043,-0.4173,51.046076,13.773997,115.1
82827700,0.2255,-0.3432,-9.0411,-1.7391,-2.1565,-0.6956,51.046076,13.773997,115.1
82827700,-0.2059,-0.1667,-9.5608,-1.8782,-2.6434,-0.6956,51.046076,13.773997,115.1
82827700,-0.1667,0.1372,-9.9237,-2.226,-2.2956,-0.7652,51.046081,13.773986,115.1
82827700,-0.4118,0.049,-9.855,-2.4347,-2.6434,-0.4173,51.046081,13.773986,115.06
82827800,-0.3628,0.049,-10.2865,-2.8521,-2.3652,-0.626,51.046081,13.773986,115.06
82827800,-0.1274,-0.4314,-9.2863,-2.6434,-2.0173,-0.626,51.046081,13.773986,115.06
82827800,0.0098,-0.4804,-8.8254,-2.2956,-1.3217,-0.7652,51.046081,13.773986,115.06
82827800,-0.2843,-0.098,-9.5216,-1.6695,-2.0869,-0.9739,51.046085,13.773975,115.06
82827800,0.6079,0.2941,-9.1588,-2.1565,-1.2521,-1.0434,51.046085,13.773975,115.05
82827900,-0.6177,0.353,-11.1887,-2.7826,-2.713,-1.0434,51.046085,13.773975,115.05
82827900,-0.1961,0.3235,-9.551,-3.4782,-2.1565,-1.0434,51.046085,13.773975,115.05
82827900,-0.2353,-0.2353,-10.0315,-3.5478,-2.2956,-1.2521,51.046085,13.773975,115.05
82827900,-0.0686,-0.2745,-9.0902,-2.5739,-1.3217,-1.3913,51.04609,13.773964,115.05
82827900,-0.049,-0.1667,-9.2765,-2.0869,-1.113,-1.3913,51.04609,13.773964,115.02
82828000,0.3137,0.3628,-9.6883,-2.5739,-1.7391,-1.6,51.04609,13.773964,115.02
82828000,0.2353,0.7354,-10.3649,-2.9913,-1.6,-1.6695,51.04609,13.773964,115.02
82828000,-0.2255,0.7648,-10.2669,-3.3391,-2.7826,-1.7391,51.04609,13.773964,115.02
82828000,-0.6668,0.1078,-9.9531,-3.4782,-2.4347,-1.8086,51.046094,13.773952,115.02
82828000,-0.3922,-0.2745,-9.6197,-2.5739,-2.7826,-1.6695,51.046094,13.773952,115.01
82828100,0.1863,-0.2353,-8.6489,-2.0173,-1.4608,-1.7391,51.046094,13.773952,115.01
82828100,-0.1078,0.2353,-10.4826,-1.9478,-2.6434,-1.8086,51.046094,13.773952,115.01
82828100,-0.1961,0.8433,-9.8648,-1.8782,-2.8521,-1.8086,51.046094,13.773952,115.01
82828100,-0.2647,0.6962,-10.159,-2.5043,-3.4086,-1.7391,51.046098,13.773941,115.01
82828100,-0.2745,0.098,-9.9237,-3.2,-3.1304,-1.8782,51.046098,13.773941,114.99
82828200,-0.6373,-0.3137,-9.1882,-2.713,-3.1304,-1.6695,51.046098,13.773941,114.99
82828200,-0.3432,-0.4216,-8.5116,-2.2956,-2.0173,-1.5304,51.046098,13.773941,114.99
82828200,-0.6275,0.0098,-9.7374,-2.3652,-2.6434,-1.6,51.046098,13.773941,114.99
82828200,-0.0392,0.0588,-10.2473,-2.5739,-2.9913,-1.8086,51.046102,13.77393,114.99
82828200,-0.1667,0.3824,-10.3649,-2.5739,-1.8782,-1.8086,51.046102,13.77393,114.92
82828300,-1.2551,0.4608,-10.0512,-2.9217,-3.2,-1.6,51.046102,13.77393,114.92
82828300,-0.6864,0.0196,-9.1392,-3.3391,-1.8782,-1.3913,51.046102,13.77393,114.92
82828300,-1.2845,-0.1176,-8.8254,-3.2,-2.5739,-1.4608,51.046102,13.77393,114.92
82828300,-0.6079,-0.0196,-8.9529,-2.226,-1.3217,-1.6,51.046106,13.773919,114.92
82828300,-0.5785,-0.1372,-9.0509,-1.3913,-1.1826,-1.6,51.046106,13.773919,114.91
82828400,-0.3432,0.3334,-9.2667,-1.0434,-0.6956,-1.6,51.046106,13.773919,114.91
82828400,-0.755,0.5393,-10.1198,-1.0434,-0.8347,-1.7391,51.046106,13.773919,114.91
82828400,-0.9904,0.6275,-9.9237,-2.0173,-1.1826,-1.5304,51.046106,13.773919,114.91
82828400,-0.9413,0.5393,-9.4824,-1.6,-0.4869,-1.6,51.046111,13.773908,114.91
82828400,-0.1765,-0.2255,-8.894,-0.5565,-0.0695,-1.6,51.046111,13.773908,114.93
82828500,-0.1961,-0.4118,-8.3645,0,0.5565,-1.6,51.046111,13.773908,114.93
82828500,-0.2843,-0.0588,-9.6687,-0.2782,-0.1391,-1.7391,51.046111,13.773908,114.93
82828500,-0.451,0.5295,-10.6395,-0.6956,-0.626,-1.6695,51.046111,13.773908,114.93
82828500,-0.8727,0.6373,-11.1788,-1.6,-1.113,-1.6,51.046116,13.773897,114.93
82828500,-0.5687,0.3824,-9.3549,-1.8782,-0.4173,-1.6,51.046116,13.773897,114.91
82828600,-0.657,-0.1961,-9.5608,-1.5304,-1.2521,-1.5304,51.046116,13.773897,114.91
82828600,-0.3137,-0.3235,-8.9921,-0.6956,-0.8347,-1.5304,51.046116,13.773897,114.91
82828600,-0.1667,-0.2745,-9.5412,0.2782,-1.3217,-1.4608,51.046116,13.773897,114.91
82828600,-0.0588,0.0588,-9.7766,0.6956,-1.4608,-1.4608,51.04612,13.773886,114.91
82828600,-0.6962,0.3824,-11.0906,0.1391,-3.2695,-1.1826,51.04612,13.773886,114.93
82828700,-1.0002,0.2647,-9.6197,-0.7652,-2.7826,-0.9043,51.04612,13.773886,114.93
82828700,-1.0002,-0.3824,-9.3451,-0.4869,-2.713,-0.6956,51.04612,13.773886,114.93
82828700,-0.3039,-0.4706,-9.0804,0.0695,-2.2956,-0.4869,51.04612,13.773886,114.93
82828700,-0.402,-0.5687,-9.1392,0.6956,-2.5043,-0.626,51.046125,13.773875,114.93
82828700,-0.098,0.0294,-9.4432,0.0695,-2.1565,-0.9043,51.046125,13.773875,114.91
82828800,-0.7354,0.5785,-11.1494,-0.2086,-3.6173,-0.5565,51.046125,13.773875,114.91
82828800,-0.8335,0.3726,-10.2865,-0.4173,-3.0608,-0.626,51.046125,13.773875,114.91
82828800,-0.6962,-0.2647,-9.3059,-0.626,-2.1565,-0.626,51.046125,13.773875,114.91
82828800,-0.7746,-0.3628,-9.4922,-0.2086,-2.2956,-0.5565,51.04613,13.773864,114.91
82828800,-0.4216,-0.4216,-8.3449,0.1391,-1.1826,-0.7652,51.04613,13.773864,114.9
82828900,-0.147,-0.4412,-9.2372,-0.3478,-1.4608,-0.9739,51.04613,13.773864,114.9
82828900,-0.0686,0.2549,-9.9727,-0.4869,-1.2521,-0.7652,51.04613,13.773864,114.9
82828900,-1.0492,0.2549,-10.9337,-0.3478,-2.7826,-0.6956,51.04613,13.773864,114.9
82828900,-0.2941,0.2353,-9.551,-0.8347,-1.6,-0.5565,51.046135,13.773853,114.9
82828900,-0.9021,-0.3726,-9.5608,-0.5565,-1.4608,-0.4869,51.046135,13.773853,114.92
82829000,-0.4804,-0.6373,-9.1,-0.3478,-1.6,-0.4173,51.046135,13.773853,114.92
82829000,-0.0784,-0.6766,-8.7371,0.4869,-1.3217,-0.3478,51.046135,13.773853,114.92
82829000,0.0686,-0.0588,-9.404,0.5565,-0.9739,-0.3478,51.046135,13.773853,114.92
82829000,-0.2843,0.3628,-10.7278,0.6956,-1.9478,-0.4869,51.046139,13.773842,114.92
82829000,-0.9119,0.2059,-10.4826,-0.3478,-2.9913,-0.3478,51.046139,13.773842,114.86
82829100,-0.6471,-0.147,-9.6687,-0.6956,-0.626,-0.1391,51.046139,13.773842,114.86
82829100,-0.8531,-0.2843,-9.3451,-0.1391,-2.2956,-0.2086,51.046139,13.773842,114.86
82829100,-0.2647,-0.1961,-9.1686,0.5565,-0.6956,-0.2086,51.046139,13.773842,114.86
82829100,-0.1765,-0.6079,-8.7862,0.9739,-1.0434,-0.4869,51.046145,13.773831,114.86
82829100,0.1078,-0.3726,-9.3843,-0.3478,-0.9043,-0.4173,51.046145,13.773831,114.96
82829200,-0.6766,0.4216,-10.7278,-0.4869,-2.2956,-0.2782,51.046145,13.773831,114.96
82829200,-0.7158,-0.2255,-9.7276,-1.2521,-2.0869,-0.2086,51.046145,13.773831,114.96
82829200,-0.9315,-0.3039,-9.4432,-1.5304,-1.2521,-0.3478,51.046145,13.773831,114.96
82829200,-0.2745,-0.3628,-9.9237,-0.4173,-1.8782,-0.2782,51.04615,13.773819,114.96
82829200,-0.098,-0.1274,-10.208,0.9739,-2.3652,-0.1391,51.04615,13.773819,115.09
82829300,0.0784,-0.3922,-9.0313,2.0173,-2.0173,-0.5565,51.04615,13.773819,115.09
82829300,-0.0882,-0.5883,-9.6981,0.7652,-2.6434,-0.4869,51.04615,13.773819,115.09
82829300,-0.6079,-0.3824,-11.022,-0.626,-4.1739,-0.0695,51.04615,13.773819,115.09
82829300,-0.6668,-0.1568,-10.6885,-1.9478,-3.4782,0.2086,51.046155,13.773808,115.09
82829300,-1.0296,-0.4314,-9.9335,-1.7391,-3.7565,0.0695,51.046155,13.773808,115.1
82829400,-0.9511,-0.4903,-8.9431,-0.5565,-3.3391,0.2086,51.046155,13.773808,115.1
82829400,-0.9511,-0.5393,-9.6589,-0.2782,-3.0608,-0.0695,51.046155,13.773808,115.1
82829400,0.3235,-0.8335,-9.6491,-0.2086,-3.0608,-0.2086,51.046155,13.773808,115.1
82829400,0.5001,0.098,-10.11,-0.5565,-3.826,-0.4173,51.04616,13.773797,115.1
82829400,-0.5589,-0.0196,-10.6297,-1.0434,-4.8,-0.4173,51.04616,13.773797,115.08
82829500,-0.9217,-0.2843,-10.2375,-1.9478,-4.4521,-0.2782,51.04616,13.773797,115.08
82829500,-1.1865,-0.4216,-9.7079,-2.0869,-3.7565,-0.4173,51.04616,13.773797,115.08
82829500,-0.5883,-0.9021,-9.0607,-1.0434,-3.5478,-0.1391,51.04616,13.773797,115.08
82829500,-0.1667,-0.5589,-9.7668,-0.6956,-2.713,-0.1391,51.046165,13.773786,115.08
82829500,-0.5099,0.0098,-10.2865,-0.1391,-2.7826,-0.4869,51.046165,13.773786,115.15
82829600,0.0098,-0.0784,-9.4334,-3.2695,-3.1304,-0.1391,51.046165,13.773786,115.15
82829600,-0.1863,-0.5197,-9.9727,-2.6434,-3.2,-0.2086,51.046165,13.773786,115.15
82829600,-0.8433,-0.4314,-9.6589,-2.9217,-3.5478,0.0695,51.046165,13.773786,115.15
82829600,-0.9904,-0.2255,-10.1492,-2.9913,-3.3391,-0.0695,51.04617,13.773775,115.15
82829600,-0.0882,-0.5001,-8.9921,-1.7391,-2.9217,-0.0695,51.04617,13.773775,115.12
82829700,-0.3432,-0.3824,-9.4726,-0.4869,-1.113,-0.2086,51.04617,13.773775,115.12
82829700,0.4118,-0.5295,-9.2961,-1.3913,-0.5565,-0.0695,51.04617,13.773775,115.12
82829700,-0.3824,-0.4804,-9.7766,-2.4347,-1.8782,0.0695,51.04617,13.773775,115.12
82829700,-0.5393,0.0588,-10.9925,-1.6,-2.9913,0.3478,51.046175,13.773763,115.12
82829700,-0.657,-0.1863,-10.0217,-2.0173,-2.2956,0.2086,51.046175,13.773763,115.14
82829800,-0.8923,-0.3432,-9.6295,-2.226,-1.9478,0.4173,51.046175,13.773763,115.14
82829800,-0.8727,-0.2941,-9.4922,-1.5304,-2.6434,0.4173,51.046175,13.773763,115.14
82829800,-0.1863,-0.5785,-9.9335,-0.5565,-1.3913,0.2086,51.046175,13.773763,115.14
82829800,-0.1568,-0.4216,-9.3255,-1.2521,-1.9478,0.4173,51.046179,13.773752,115.14
82829800,0.0686,-0.1961,-10.6199,-1.3217,-2.4347,0.2086,51.046179,13.773752,115.12
82829900,-0.3235,0.0294,-10.1492,-1.6,-2.7826,0.4173,51.046179,13.773752,115.12
82829900,-0.8629,-0.2157,-10.3453,-2.0173,-4.2434,0.4173,51.046179,13.773752,115.12
82829900,-0.5589,-0.5491,-9.6001,-2.1565,-2.5043,0.4869,51.046179,13.773752,115.12
82829900,-0.8531,-0.4903,-9.9335,-1.5304,-3.4086,0.4869,51.046184,13.773741,115.12
82829900,-0.2059,-0.755,-9.2667,-1.1826,-1.9478,0.3478,51.046184,13.773741,115.16
82830000,0.0588,-0.6766,-9.3059,-1.7391,-2.3652,0.4173,51.046184,13.773741,115.16
82830000,-0.1078,-0.147,-10.0217,-2.3652,-2.6434,0.2782,51.046184,13.773741,115.16
82830000,-0.4118,-0.0392,-10.1688,-2.3652,-3.2,0.4173,51.046184,13.773741,115.16
82830000,-0.9904,0.1372,-10.1688,-2.9217,-4.1043,0.4869,51.046189,13.773729,115.16
82830000,-0.4608,-0.1863,-9.6785,-2.5043,-2.713,0.4869,51.046189,13.773729,115.21
82830100,-0.9609,-0.5099,-9.4236,-2.1565,-2.7826,0.4869,51.046189,13.773729,115.21
82830100,-0.6471,-0.5393,-9.5216,-1.6695,-2.4347,0.5565,51.046189,13.773729,115.21
82830100,-0.147,-0.2353,-8.8744,-1.3217,-1.6,0.7652,51.046189,13.773729,115.21
82830100,-0.4706,0.098,-10.1982,-1.0434,-2.7826,0.4869,51.046194,13.773718,115.21
82830100,0.2843,0.3726,-9.5608,-0.7652,-1.3913,0.2086,51.046194,13.773718,115.15
82830200,-0.6177,0.4216,-10.0512,-0.9739,-2.713,0.4869,51.046194,13.773718,115.15
82830200,-1.059,0.1274,-9.9237,-1.113,-2.226,0.5565,51.046194,13.773718,115.15
82830200,-1.0982,-0.755,-9.3353,-0.9739,-1.3913,0.5565,51.046194,13.773718,115.15
82830200,-0.7844,-0.7158,-9.3745,-0.7652,-1.6695,0.5565,51.046198,13.773707,115.15
82830200,0.3039,-0.9119,-8.8058,-1.2521,-0.626,0.4869,51.046198,13.773707,115.03
82830300,-0.4903,-0.4903,-10.6395,-1.3217,-2.5043,0.4869,51.046198,13.773707,115.03
82830300,0.2059,-0.2549,-10.2179,-1.3217,-1.7391,0.3478,51.046198,13.773707,115.03
82830300,-0.5099,0.1961,-10.0315,-1.8086,-2.0173,0.2782,51.046198,13.773707,115.03
82830300,-0.706,0.2941,-10.5611,-1.8086,-2.8521,0.4173,51.046203,13.773696,115.03
82830300,-0.8531,-0.2353,-10.2473,-1.6695,-2.0173,0.3478,51.046203,13.773696,115.03
82830400,-1.1178,-0.5883,-9.9237,-1.113,-2.6434,0.3478,51.046203,13.773696,115.03
82830400,-0.0686,-0.6668,-8.8744,-0.8347,-1.1826,0.6956,51.046203,13.773696,115.03
82830400,-0.2843,-0.3235,-9.7668,-0.3478,-1.6,0.7652,51.046203,13.773696,115.03
82830400,0.3039,0.1863,-9.8452,-0.2086,-2.0869,0.4869,51.046208,13.773685,115.03
82830400,-0.1176,0.755,-10.414,-0.2086,-1.7391,0.5565,51.046208,13.773685,115.07
82830500,-0.5981,0.1863,-9.6393,0.2782,-2.8521,0.5565,51.046208,13.773685,115.07
82830500,-0.8825,-0.5785,-8.9921,-0.626,-2.0869,0.6956,51.046208,13.773685,115.07
82830500,-0.8923,-1.1375,-9.2078,-0.9739,-2.226,0.8347,51.046208,13.773685,115.07
82830500,-0.1863,-1.0002,-8.9529,-0.9739,-0.9739,0.626,51.046213,13.773673,115.07
82830500,-0.706,-0.755,-8.845,-1.113,-0.6956,0.6956,51.046213,13.773673,115.17
82830600,-0.5099,-0.2843,-10.3159,-1.4608,-1.6,0.4173,51.046213,13.773673,115.17
82830600,0.2843,-0.1176,-9.9825,-1.3913,-0.626,0,51.046213,13.773673,115.17
82830600,-0.7746,0.1274,-10.0708,-0.9043,-1.5304,0.4173,51.046213,13.773673,115.17
82830600,-0.6668,-0.3235,-9.149,-1.2521,-0.7652,0.4869,51.046218,13.773662,115.17
82830600,-0.7746,-0.6373,-9.7766,-1.7391,-1.113,0.4173,51.046218,13.773662,115.18
82830700,-0.2059,-0.7746,-9.7276,-2.2956,-0.7652,0.7652,51.046218,13.773662,115.18
82830700,-0.5785,-0.4903,-10.0806,-2.0869,-0.9739,0.7652,51.046218,13.773662,115.18
82830700,-0.0784,-0.1078,-8.9038,-1.0434,-0.5565,0.6956,51.046218,13.773662,115.18
82830700,-0.0196,-0.0098,-9.9727,-0.4173,-0.4869,0.5565,51.046223,13.773651,115.18
82830700,-0.6079,0,-10.3551,-0.2782,-1.3913,0.7652,51.046223,13.773651,115.18
82830800,-0.8139,-0.2353,-9.6295,-1.2521,-1.4608,0.626,51.046223,13.773651,115.18
82830800,-0.6079,-0.5099,-8.6783,-1.6,-0.8347,0.6956,51.046223,13.773651,115.18
82830800,-0.7844,-1.0982,-9.5903,-1.5304,-1.3217,0.8347,51.046223,13.773651,115.18
82830800,0.147,-0.9119,-8.9823,-2.0173,-0.4173,0.8347,51.046227,13.77364,115.18
82830800,-0.3235,-0.7158,-9.4922,-2.226,-1.5304,0.4869,51.046227,13.77364,115.18
82830900,0.1961,0.0784,-10.3453,-1.8086,-1.113,0.4173,51.046227,13.77364,115.18
82830900,0.098,0.0882,-10.1982,-1.7391,-2.1565,0.4869,51.046227,13.77364,115.18
82830900,-0.451,-0.3039,-10.2473,-2.0173,-2.5739,0.4173,51.046227,13.77364,115.18
82830900,-0.3039,-0.6373,-9.3059,-1.8782,-2.1565,0.4869,51.046232,13.773629,115.18
82830900,-1.01,-0.4804,-9.9727,-1.8782,-2.4347,0.626,51.046232,13.773629,115.18
82831000,-0.4118,-0.3824,-9.551,-1.5304,-1.3913,0.9043,51.046232,13.773629,115.18
82831000,-0.0784,-0.7746,-10.1296,-1.113,-1.4608,0.9739,51.046232,13.773629,115.18
82831000,0,-0.2157,-10.208,-1.2521,-2.8521,0.7652,51.046232,13.773629,115.18
82831000,0.2451,0.1568,-9.6491,-1.113,-1.4608,0.9739,51.046237,13.773617,115.18
82831000,-0.8727,0.0196,-10.0021,-0.9739,-4.5913,0.9043,51.046237,13.773617,115.2
82831100,-0.8335,-0.2059,-9.0509,-1.6,-3.4086,0.9043,51.046237,13.773617,115.2
82831100,-0.8531,-0.9413,-9.9139,-2.2956,-2.7826,1.0434,51.046237,13.773617,115.2
82831100,-0.4216,-0.8237,-9.7668,-2.4347,-2.7826,1.0434,51.046237,13.773617,115.2
82831100,0.0588,-0.3235,-9.855,-2.1565,-1.8782,0.9043,51.046241,13.773606,115.2
82831100,-0.2451,-0.2843,-10.0904,-2.0173,-3.6173,0.5565,51.046241,13.773606,115.19
82831200,0.5589,-0.1961,-10.0708,-2.0869,-1.9478,0.4173,51.046241,13.773606,115.19
82831200,-0.5393,0.0098,-9.8648,-2.226,-2.713,0.6956,51.046241,13.773606,115.19
82831200,-0.9707,-0.2647,-10.5611,-2.2956,-3.3391,0.626,51.046241,13.773606,115.19
82831200,-0.5197,-0.3432,-9.7766,-2.713,-2.2956,0.6956,51.046246,13.773595,115.19
82831200,-0.7746,-0.2745,-9.3157,-2.8521,-2.226,0.626,51.046246,13.773595,115.19
82831300,0.0784,-0.402,-9.0215,-2.0869,-1.7391,0.8347,51.046246,13.773595,115.19
82831300,-0.2059,-0.4118,-9.3745,-1.5304,-2.226,0.5565,51.046246,13.773595,115.19
82831300,-0.1863,-0.2451,-10.1884,-1.5304,-2.226,0.4173,51.046246,13.773595,115.19
82831300,-0.1078,0.3922,-10.0708,-1.8086,-2.2956,0.5565,51.046251,13.773584,115.19
82831300,-0.5393,-0.0294,-10.3453,-2.0173,-4.0347,0.6956,51.046251,13.773584,115.18
82831400,-0.4903,-0.3824,-9.8746,-1.9478,-3.3391,0.4869,51.046251,13.773584,115.18
82831400,-1.3434,-0.7452,-8.8352,-2.226,-2.7826,0.5565,51.046251,13.773584,115.18
82831400,-0.4706,-0.5687,-9.9335,-1.8782,-2.2956,0.4869,51.046251,13.773584,115.18
82831400,-0.1078,-0.2353,-9.6589,-1.2521,-1.8782,0.626,51.046255,13.773572,115.18
