Time,Ax,Ay,Az,Gx,Gy,Gz
0.027027027,0.068115234,-0.107910156,1.035888672,-0.858306885,1.399993896,3.90625
0.054054054,0.066894531,-0.111328125,1.029296875,2.853393555,-3.307342529,-1.457214355
0.081081081,0.069580078,-0.111328125,1.036865234,0.709533691,-2.155303955,1.224517822
0.108108108,0.075195313,-0.115234375,1.032714844,0.316619873,-1.388549805,0.072479248
0.135135135,0.068359375,-0.107666016,1.040039063,-2.422332764,-2.540588379,-1.075744629
0.162162162,0.065185547,-0.112548828,1.035400391,2.666473389,-3.307342529,0.629425049
0.189189189,0.069580078,-0.109863281,1.035888672,0.316619873,-0.23651123,-0.308990479
0.216216216,0.066162109,-0.109619141,1.037841797,-1.251220703,-1.384735107,1.224517822
0.243243243,0.063964844,-0.108398438,1.036865234,1.10244751,0.152587891,-0.308990479
0.27027027,0.067871094,-0.104248047,1.036376953,1.491546631,-0.617980957,4.287719727
0.297297297,0.072998047,-0.111328125,1.031005859,3.452301025,-2.155303955,-2.60925293
0.324324324,0.0703125,-0.111083984,1.04296875,0.709533691,-1.770019531,0.839233398
0.351351351,0.067626953,-0.115722656,1.042480469,0.709533691,-3.307342529,-0.308990479
0.378378378,0.069335938,-0.109863281,1.037353516,-0.072479248,-0.617980957,0.072479248
0.405405405,0.073242188,-0.104003906,1.039794922,2.27355957,1.300811768,3.13949585
0.432432432,0.073242188,-0.104003906,1.039794922,2.27355957,1.300811768,3.13949585
0.459459459,0.069091797,-0.110839844,1.028808594,-0.858306885,-2.780914307,-2.223968506
0.486486486,0.067138672,-0.107421875,1.035400391,-2.815246582,3.604888916,1.224517822
0.513513514,0.069824219,-0.107910156,1.032226563,0.316619873,-1.354217529,-2.223968506
0.540540541,0.067138672,-0.106201172,1.038818359,-0.072479248,-1.388549805,5.435943604
0.567567568,0.069580078,-0.106689453,1.038085938,-0.858306885,-2.155303955,-0.694274902
0.594594595,0.069580078,-0.106689453,1.038085938,-0.858306885,-2.155303955,-0.694274902
0.621621622,0.074462891,-0.107421875,1.040039063,0.316619873,-0.617980957,0.839233398
0.648648649,0.071777344,-0.106933594,1.036621094,1.10244751,-2.536773682,2.372741699
0.675675676,0.064941406,-0.10546875,1.032714844,-2.815246582,-2.986907959,-1.842498779
0.702702703,0.070800781,-0.116943359,1.034423828,4.627227783,-1.003265381,0.839233398
0.72972973,0.064453125,-0.107177734,1.037109375,-0.858306885,-3.402709961,1.991271973
0.756756757,0.064453125,-0.107177734,1.037109375,-0.858306885,-3.402709961,1.991271973
0.783783784,0.065673828,-0.111572266,1.041992188,-0.858306885,-1.003265381,4.67300415
0.810810811,0.067626953,-0.111816406,1.037597656,3.059387207,-0.583648682,1.605987549
0.837837838,0.06640625,-0.110351563,1.037597656,1.10244751,0.152587891,0.076293945
0.864864865,0.071044922,-0.110595703,1.039794922,0.316619873,-4.84085083,4.993438721
0.891891892,0.068359375,-0.110595703,1.041259766,1.491546631,-1.003265381,5.439758301
0.918918919,0.069335938,-0.108398438,1.029541016,-0.858306885,1.960754395,-1.075744629
0.945945946,0.063964844,-0.111083984,1.037353516,-0.858306885,-1.003265381,3.90625
0.972972973,0.063964844,-0.111083984,1.037353516,-0.858306885,-1.003265381,3.90625
1,0.074462891,-0.104003906,1.034912109,-0.858306885,-2.155303955,1.605987549
1.027027027,0.069335938,-0.107666016,1.036376953,-1.640319824,1.300811768,-0.308990479
1.054054054,0.066650391,-0.116943359,1.035888672,-1.823425293,0.148773193,0.457763672
1.081081081,0.070068359,-0.104248047,1.037353516,-1.640319824,-0.232696533,1.224517822
1.108108108,0.064697266,-0.111328125,1.036376953,1.491546631,-1.594543457,-0.308990479
1.135135135,0.067626953,-0.108886719,1.038330078,-2.033233643,-1.003265381,-0.308990479
1.162162162,0.067626953,-0.108886719,1.038330078,-2.033233643,-1.003265381,-0.308990479
1.189189189,0.065429688,-0.100585938,1.040039063,0.709533691,-1.770019531,2.372741699
1.216216216,0.065917969,-0.114257813,1.034667969,-1.251220703,-2.536773682,0.839233398
1.243243243,0.068847656,-0.109619141,1.044189453,1.10244751,-0.232696533,1.224517822
1.27027027,0.077148438,-0.106445313,1.033691406,-0.465393066,-1.003265381,-3.372192383
1.297297297,0.066894531,-0.104736328,1.034912109,-0.465393066,-1.770019531,-2.990722656
1.324324324,0.069580078,-0.10546875,1.031982422,-0.465393066,-0.617980957,1.991271973
1.351351351,0.074707031,-0.112060547,1.029052734,-1.247406006,-2.155303955,2.754211426
1.378378378,0.068115234,-0.112548828,1.040283203,-0.465393066,1.575469971,0.072479248
1.405405405,0.066162109,-0.110107422,1.036132813,-2.422332764,-1.21307373,0.839233398
1.432432432,0.075439453,-0.104980469,1.038574219,-0.072479248,-0.23651123,-1.457214355
1.459459459,0.073486328,-0.110839844,1.037109375,-2.998352051,0.152587891,0.839233398
1.486486486,0.073486328,-0.110839844,1.037109375,-2.998352051,0.152587891,0.839233398
1.513513514,0.069335938,-0.105224609,1.033203125,-3.2081604,-0.617980957,0.839233398
1.540540541,0.064941406,-0.109130859,1.041503906,-1.251220703,-1.945495605,0.839233398
1.567567568,0.067382813,-0.111572266,1.036621094,1.884460449,0.152587891,3.13949585
1.594594595,0.064208984,-0.110839844,1.036376953,-3.2081604,-1.800537109,0.457763672
1.621621622,0.065917969,-0.111083984,1.037353516,1.094818115,-1.003265381,3.90625
1.648648649,0.06640625,-0.111328125,1.0390625,0.709533691,-4.077911377,0.457763672
1.675675676,0.070800781,-0.108398438,1.031738281,2.84576416,-0.23651123,1.224517822
1.702702703,0.070800781,-0.108398438,1.031738281,2.84576416,-0.23651123,1.224517822
1.72972973,0.071533203,-0.108886719,1.037109375,-1.247406006,-1.770019531,-1.075744629
1.756756757,0.074707031,-0.111572266,1.040283203,3.059387207,-5.992889404,2.239227295
1.783783784,0.066650391,-0.108886719,1.033935547,0.709533691,-1.003265381,1.224517822
1.810810811,0.064453125,-0.104248047,1.036621094,-2.033233643,-1.003265381,0.247955322
1.837837838,0.070068359,-0.113769531,1.036865234,2.269744873,-0.232696533,1.224517822
1.864864865,0.064453125,-0.101806641,1.027587891,-0.663757324,-1.770019531,3.13949585
1.891891892,0.064453125,-0.101806641,1.027587891,-0.663757324,-1.770019531,3.13949585
1.918918919,0.071777344,-0.110351563,1.035888672,-2.033233643,-1.384735107,0.457763672
1.945945946,0.065917969,-0.110351563,1.033935547,-1.251220703,0.534057617,-1.914978027
1.972972973,0.065185547,-0.106689453,1.037353516,0.900268555,-1.770019531,0.076293945
2,0.068847656,-0.11328125,1.042236328,-0.076293945,-1.384735107,0.457763672
2.027027027,0.077636719,-0.103027344,1.038574219,0.316619873,-1.384735107,3.215789795
2.054054054,0.064453125,-0.109375,1.030273438,1.884460449,-2.155303955,2.792358398
2.081081081,0.064453125,-0.109375,1.030273438,1.884460449,-2.155303955,2.792358398
2.108108108,0.074707031,-0.110595703,1.034912109,1.10244751,-2.155303955,-0.308990479
2.135135135,0.068115234,-0.114990234,1.033691406,-0.072479248,-0.617980957,3.520965576
2.162162162,0.065917969,-0.104248047,1.034423828,-0.465393066,-2.155303955,1.605987549
2.189189189,0.071289063,-0.108398438,1.0390625,-2.029418945,-1.003265381,-1.075744629
2.216216216,0.067138672,-0.106445313,1.034423828,0.900268555,-1.003265381,-1.075744629
2.243243243,0.067626953,-0.110351563,1.03515625,-2.815246582,-0.617980957,1.224517822
2.27027027,0.067626953,-0.110351563,1.03515625,-2.815246582,-0.617980957,1.224517822
2.297297297,0.064941406,-0.10546875,1.037841797,3.433227539,-2.536773682,-1.075744629
2.324324324,0.068115234,-0.105712891,1.040039063,0.316619873,-2.155303955,1.991271973
2.351351351,0.066650391,-0.107177734,1.039794922,2.666473389,-0.617980957,-0.308990479
2.378378378,0.06640625,-0.112548828,1.031738281,1.491546631,-1.770019531,-0.690460205
2.405405405,0.071533203,-0.107177734,1.036376953,-1.63269043,3.223419189,3.13949585
2.432432432,0.071533203,-0.107177734,1.036376953,-1.63269043,3.223419189,3.13949585
2.459459459,0.061523438,-0.109130859,1.038085938,-2.426147461,0.568389893,0.839233398
2.486486486,0.075927734,-0.110595703,1.037597656,1.884460449,-1.770019531,1.605987549
2.513513514,0.068359375,-0.112060547,1.036621094,-0.465393066,-1.384735107,1.224517822
2.540540541,0.071044922,-0.111328125,1.039794922,-0.858306885,1.686096191,-1.74331665
2.567567568,0.071044922,-0.111328125,1.039794922,-0.858306885,1.686096191,-1.74331665
2.594594595,0.071044922,-0.110351563,1.038574219,-1.243591309,-0.617980957,1.605987549
2.621621622,0.067138672,-0.112548828,1.036132813,-3.2081604,-1.384735107,-0.171661377
2.648648649,0.063476563,-0.108886719,1.047851563,-0.076293945,-2.155303955,0.457763672
2.675675676,0.065429688,-0.108642578,1.03515625,-0.858306885,-1.003265381,1.605987549
2.702702703,0.067871094,-0.114746094,1.034667969,3.841400146,-4.459381104,0.038146973
2.72972973,0.070068359,-0.112548828,1.036132813,1.491546631,-1.384735107,0.076293945
2.756756757,0.072998047,-0.111572266,1.031738281,-2.815246582,-1.384735107,0.839233398
2.783783784,0.063720703,-0.108642578,1.038085938,-1.441955566,0.534057617,0.457763672
2.810810811,0.070556641,-0.110595703,1.038574219,-0.465393066,0.534057617,2.758026123
2.837837838,0.0703125,-0.108886719,1.041015625,3.841400146,-2.536773682,1.224517822
2.864864865,0.074707031,-0.107666016,1.036621094,2.666473389,-2.155303955,1.224517822
2.891891892,0.074707031,-0.107666016,1.036621094,2.666473389,-2.155303955,1.224517822
2.918918919,0.069091797,-0.106689453,1.034667969,3.841400146,-2.536773682,-1.842498779
2.945945946,0.065185547,-0.111572266,1.042236328,1.491546631,0.217437744,3.90625
2.972972973,0.060302734,-0.117919922,1.040527344,-3.601074219,-2.185821533,-0.690460205
3,0.069335938,-0.111083984,1.041503906,-0.465393066,-0.232696533,3.520965576
3.027027027,0.068115234,-0.106201172,1.038574219,3.047943115,-0.617980957,0.457763672
3.054054054,0.066650391,-0.112060547,1.040283203,-1.640319824,0.534057617,1.991271973
3.081081081,0.062255859,-0.105712891,1.036376953,1.10244751,0.148773193,0.839233398
3.108108108,0.066894531,-0.106201172,1.039550781,3.059387207,-1.003265381,0.282287598
3.135135135,0.065429688,-0.113769531,1.039306641,1.10244751,-0.23651123,-1.075744629
3.162162162,0.07421875,-0.110107422,1.036132813,-1.441955566,-1.770019531,4.67300415
3.189189189,0.063964844,-0.112304688,1.033935547,-0.858306885,-1.003265381,0.839233398
3.216216216,0.072753906,-0.104492188,1.038818359,-0.072479248,1.300811768,-3.757476807
3.243243243,0.069091797,-0.10546875,1.033203125,1.491546631,0.152587891,1.224517822
3.27027027,0.065185547,-0.106445313,1.039794922,1.491546631,-0.232696533,5.760192871
3.297297297,0.065185547,-0.106445313,1.039794922,1.491546631,-0.232696533,5.760192871
3.324324324,0.064208984,-0.106933594,1.038330078,-0.267028809,-2.536773682,-0.308990479
3.351351351,0.06640625,-0.116210938,1.040039063,-1.640319824,-1.384735107,1.014709473
3.378378378,0.067138672,-0.111083984,1.038330078,0.709533691,-2.536773682,1.605987549
3.405405405,0.065673828,-0.114257813,1.036621094,0.709533691,-0.232696533,0.839233398
3.432432432,0.069091797,-0.112548828,1.042480469,2.666473389,-2.155303955,2.372741699
3.459459459,0.069091797,-0.112548828,1.042480469,2.666473389,-2.155303955,2.372741699
3.486486486,0.006591797,-0.11328125,1.035400391,-0.076293945,0.152587891,2.410888672
3.513513514,0.070068359,-0.112548828,1.037353516,-1.640319824,-3.307342529,1.605987549
3.540540541,0.071777344,-0.108642578,1.040283203,-0.858306885,-2.536773682,0.076293945
3.567567568,0.068359375,-0.10546875,1.033691406,0.896453857,-3.307342529,0.839233398
3.594594595,0.071777344,-0.109863281,1.046142578,-0.076293945,-3.688812256,3.90625
3.621621622,0.072021484,-0.110107422,1.033935547,1.289367676,-2.155303955,0.076293945
3.648648649,0.072021484,-0.110107422,1.033935547,1.289367676,-2.155303955,0.076293945
3.675675676,0.067626953,-0.104492188,1.039306641,-2.815246582,-1.003265381,-1.075744629
3.702702703,0.068603516,-0.11328125,1.043701172,1.491546631,-1.003265381,0.076293945
3.72972973,0.070800781,-0.104492188,1.039550781,2.277374268,-2.922058105,3.845214844
3.756756757,0.067382813,-0.106445313,1.043212891,0.316619873,0.534057617,1.605987549
3.783783784,0.069091797,-0.110595703,1.036621094,-0.858306885,-2.155303955,0.072479248
3.810810811,0.064941406,-0.113525391,1.034423828,-3.204345703,-1.003265381,1.224517822
3.837837838,0.064941406,-0.113525391,1.034423828,-3.204345703,-1.003265381,1.224517822
3.864864865,0.06640625,-0.114013672,1.038818359,-0.259399414,0.534057617,-0.308990479
3.891891892,0.065185547,-0.112060547,1.0390625,1.884460449,-2.155303955,-1.457214355
3.918918919,0.062011719,-0.108154297,1.031005859,-2.422332764,3.604888916,-1.842498779
3.945945946,0.067626953,-0.112792969,1.03515625,0.316619873,-0.617980957,0.839233398
3.972972973,0.071777344,-0.109619141,1.043212891,1.884460449,0.148773193,0.839233398
4,0.071777344,-0.109619141,1.043212891,1.884460449,0.148773193,0.839233398
4.027027027,0.068115234,-0.107666016,1.038330078,-3.971099854,1.686096191,0.839233398
4.054054054,0.0703125,-0.106689453,1.03515625,1.491546631,-1.384735107,-1.075744629
4.081081081,0.069091797,-0.108642578,1.035888672,0.709533691,-1.384735107,0.457763672
4.108108108,0.065917969,-0.114257813,1.03515625,-0.858306885,-2.922058105,1.18637085
4.135135135,0.072265625,-0.106201172,1.0390625,1.884460449,-3.688812256,3.520965576
4.162162162,0.062255859,-0.111816406,1.038574219,-0.076293945,0.919342041,1.605987549
4.189189189,0.062255859,-0.111816406,1.038574219,-0.076293945,0.919342041,1.605987549
4.216216216,0.065673828,-0.108154297,1.038574219,-2.815246582,-1.003265381,-3.90625
4.243243243,0.064208984,-0.106933594,1.041503906,1.873016357,-1.770019531,3.13949585
4.27027027,0.062744141,-0.115966797,1.039550781,1.678466797,-2.155303955,0.076293945
4.297297297,0.072753906,-0.106689453,1.035400391,0.701904297,-1.003265381,-1.075744629
4.324324324,0.066162109,-0.108642578,1.032958984,-0.465393066,0.534057617,1.396179199
4.351351351,0.066162109,-0.108642578,1.032958984,-0.465393066,0.534057617,1.396179199
4.378378378,0.065673828,-0.109375,1.040039063,-1.251220703,-3.688812256,2.758026123
4.405405405,0.063476563,-0.112304688,1.038085938,-3.2081604,-1.033782959,1.224517822
4.432432432,0.062011719,-0.112304688,1.031494141,0.709533691,-2.155303955,0.457763672
4.459459459,0.067382813,-0.101318359,1.039550781,-0.858306885,1.304626465,3.13949585
4.486486486,0.0703125,-0.113037109,1.040771484,2.277374268,-2.155303955,2.758026123
4.513513514,0.071533203,-0.111328125,1.036621094,3.841400146,-1.384735107,1.781463623
4.540540541,0.068847656,-0.104248047,1.030273438,1.884460449,-1.384735107,-1.457214355
4.567567568,0.068847656,-0.104248047,1.030273438,1.884460449,-1.384735107,-1.457214355
4.594594595,0.068603516,-0.112304688,1.039550781,-0.076293945,-2.155303955,1.224517822
4.621621622,0.070068359,-0.107910156,1.031494141,0.713348389,-1.003265381,1.224517822
4.648648649,0.073486328,-0.112548828,1.041503906,1.10244751,-2.155303955,3.177642822
4.675675676,0.066162109,-0.108154297,1.034423828,-0.465393066,0.183105469,2.758026123
4.702702703,0.072753906,-0.114257813,1.026611328,-0.465393066,0.152587891,1.605987549
4.72972973,0.067871094,-0.113037109,1.035888672,2.277374268,-1.770019531,0.457763672
4.756756757,0.067871094,-0.113037109,1.035888672,2.277374268,-1.770019531,0.457763672
4.783783784,0.075927734,-0.117919922,1.043945313,-0.858306885,-1.003265381,0.457763672
4.810810811,0.069824219,-0.108398438,1.035888672,1.10244751,-0.232696533,0.076293945
4.837837838,0.069824219,-0.108398438,1.031982422,-0.076293945,-0.617980957,0.839233398
4.864864865,0.065673828,-0.108398438,1.037841797,-0.465393066,0.534057617,0.667572021
4.891891892,0.072753906,-0.110839844,1.041503906,0.316619873,-2.746582031,1.605987549
4.918918919,0.068847656,-0.109375,1.038574219,-0.076293945,-1.384735107,-2.60925293
4.945945946,0.068847656,-0.109375,1.038574219,-0.076293945,-1.384735107,-2.60925293
4.972972973,0.069580078,-0.109375,1.034423828,-2.815246582,0.534057617,-2.681732178
5,0.0703125,-0.10546875,1.032958984,1.876831055,-0.232696533,-0.308990479
5.027027027,0.069580078,-0.111572266,1.039794922,2.666473389,-2.536773682,3.13949585
5.054054054,0.06640625,-0.106689453,1.041503906,-0.080108643,0.152587891,0.076293945
5.081081081,0.062744141,-0.107666016,1.035400391,-0.465393066,-0.232696533,1.224517822
5.108108108,0.068847656,-0.109863281,1.03515625,2.277374268,-0.617980957,-1.876831055
5.135135135,0.069091797,-0.106933594,1.038574219,-0.076293945,0.919342041,1.224517822
5.162162162,0.069335938,-0.114257813,1.036132813,1.091003418,-0.232696533,-1.842498779
5.189189189,0.067382813,-0.113769531,1.039306641,-1.640319824,-2.571105957,-2.60925293
5.216216216,0.071044922,-0.110595703,1.035644531,2.277374268,-0.617980957,-1.457214355
5.243243243,0.0625,-0.107177734,1.031982422,1.10244751,0.919342041,-4.524230957
5.27027027,0.069335938,-0.106933594,1.033691406,0.709533691,-0.553131104,1.605987549
5.297297297,0.064941406,-0.107177734,1.035400391,2.666473389,0.148773193,0.839233398
5.324324324,0.064941406,-0.107177734,1.035400391,2.666473389,0.148773193,0.839233398
5.351351351,0.071533203,-0.112304688,1.036132813,1.10244751,-1.003265381,-1.075744629
5.378378378,0.069091797,-0.112304688,1.035400391,-0.270843506,-2.540588379,-1.842498779
5.405405405,0.071289063,-0.107910156,1.034667969,2.666473389,-1.388549805,-0.308990479
5.432432432,0.072753906,-0.114501953,1.033935547,2.666473389,-2.540588379,2.201080322
5.459459459,0.0703125,-0.106445313,1.03125,0.316619873,-0.968933105,1.224517822
5.486486486,0.07421875,-0.108642578,1.042724609,-3.99017334,2.067565918,0.839233398
5.513513514,0.063232422,-0.107421875,1.031738281,-2.422332764,-1.388549805,0.457763672
5.540540541,0.063232422,-0.107421875,1.031738281,-2.422332764,-1.388549805,0.457763672
5.567567568,0.075195313,-0.106933594,1.034423828,-0.858306885,2.067565918,0.457763672
5.594594595,0.075439453,-0.116943359,1.032714844,-1.247406006,-1.770019531,0.457763672
5.621621622,0.066650391,-0.110351563,1.038818359,0.316619873,-5.229949951,0.072479248
5.648648649,0.06640625,-0.111328125,1.032958984,-0.465393066,-1.770019531,-0.385284424
5.675675676,0.066894531,-0.110595703,1.035400391,-0.465393066,0.389099121,-1.842498779
5.702702703,0.068603516,-0.111328125,1.043457031,1.491546631,-1.770019531,1.605987549
5.72972973,0.068603516,-0.111328125,1.043457031,1.491546631,-1.770019531,1.605987549
5.756756757,0.068115234,-0.110107422,1.033447266,1.10244751,-1.003265381,-1.457214355
5.783783784,0.063476563,-0.112548828,1.032226563,-0.465393066,-2.922058105,0.839233398
5.810810811,0.064697266,-0.114746094,1.041259766,-0.072479248,-1.770019531,-1.075744629
5.837837838,0.066162109,-0.111816406,1.038574219,-1.640319824,-0.617980957,0.457763672
5.864864865,0.062988281,-0.111572266,1.041992188,-2.422332764,-1.003265381,-0.308990479
5.891891892,0.073974609,-0.104980469,1.035400391,2.27355957,-1.003265381,0.072479248
5.918918919,0.073730469,-0.112304688,1.040771484,-0.465393066,-0.617980957,2.410888672
5.945945946,0.069091797,-0.111816406,1.036376953,-1.247406006,0.534057617,1.987457275
5.972972973,0.071289063,-0.104492188,1.038818359,-2.422332764,-0.617980957,2.754211426
6,0.071044922,-0.112548828,1.034912109,0.511169434,-2.155303955,2.372741699
6.027027027,0.072998047,-0.112060547,1.037597656,0.709533691,-4.459381104,0.457763672
6.054054054,0.06640625,-0.106689453,1.038330078,1.10244751,-1.003265381,-3.90625
6.081081081,0.071044922,-0.108886719,1.040039063,1.483917236,-0.617980957,-1.457214355
6.108108108,0.075927734,-0.111816406,1.035400391,2.27355957,-2.922058105,0.839233398
6.135135135,0.072021484,-0.102783203,1.036376953,-3.204345703,-1.770019531,-0.308990479
6.162162162,0.065673828,-0.110107422,1.037109375,-0.858306885,-1.003265381,0.457763672
6.189189189,0.065185547,-0.100341797,1.033935547,-0.465393066,1.300811768,4.67300415
6.216216216,0.061523438,-0.106201172,1.039794922,-0.465393066,-0.617980957,-0.308990479
6.243243243,0.073730469,-0.109375,1.033447266,-0.076293945,0.152587891,0.839233398
6.27027027,0.073730469,-0.109375,1.033447266,-0.076293945,0.152587891,0.839233398
6.297297297,0.073974609,-0.108154297,1.032958984,2.277374268,-1.770019531,3.13949585
6.324324324,0.073974609,-0.108154297,1.032958984,2.277374268,-1.770019531,3.13949585
6.351351351,0.073242188,-0.108886719,1.031738281,-2.815246582,-3.307342529,-1.113891602
6.378378378,0.067871094,-0.108886719,1.024169922,1.491546631,-1.003265381,-1.457214355
6.405405405,0.067871094,-0.108886719,1.024169922,1.491546631,-1.003265381,-1.457214355
6.432432432,0.067138672,-0.107666016,1.030273438,0.316619873,-2.536773682,0.457763672
6.459459459,0.067138672,-0.107666016,1.030273438,0.316619873,-2.536773682,0.457763672
6.486486486,0.067871094,-0.109619141,1.045898438,0.118255615,-2.155303955,2.372741699
6.513513514,0.07421875,-0.109619141,1.0390625,0.316619873,1.926422119,4.287719727
6.540540541,0.07421875,-0.109619141,1.0390625,0.316619873,1.926422119,4.287719727
6.567567568,0.069580078,-0.113037109,1.036621094,-0.858306885,-2.536773682,1.605987549
6.594594595,0.069580078,-0.113037109,1.036621094,-0.858306885,-2.536773682,1.605987549
6.621621622,0.070800781,-0.112304688,1.037597656,-2.029418945,-3.307342529,2.792358398
6.648648649,0.070800781,-0.112304688,1.037597656,-2.029418945,-3.307342529,2.792358398
6.675675676,0.065673828,-0.111328125,1.033935547,2.277374268,0.919342041,3.13949585
6.702702703,0.065673828,-0.111328125,1.033935547,2.277374268,0.919342041,3.13949585
6.72972973,0.061523438,-0.108398438,1.032714844,2.277374268,-1.003265381,-2.223968506
6.756756757,0.063476563,-0.111816406,1.031494141,1.689910889,-1.003265381,1.991271973
6.783783784,0.063476563,-0.111816406,1.031494141,1.689910889,-1.003265381,1.991271973
6.810810811,0.069580078,-0.111572266,1.036132813,1.10244751,0.774383545,2.758026123
6.837837838,0.069580078,-0.111572266,1.036132813,1.10244751,0.774383545,2.758026123
6.864864865,0.066894531,-0.106689453,1.036132813,1.491546631,-2.365112305,-1.075744629
6.891891892,0.073242188,-0.111083984,1.035644531,-0.858306885,-1.770019531,1.224517822
6.918918919,0.065185547,-0.108886719,1.041015625,-0.858306885,-2.540588379,0.839233398
6.945945946,0.065185547,-0.108886719,1.041015625,-0.858306885,-2.540588379,0.839233398
6.972972973,0.071533203,-0.113769531,1.0390625,0.316619873,-3.688812256,-1.075744629
7,0.071533203,-0.113769531,1.0390625,0.316619873,-3.688812256,-1.075744629
7.027027027,0.068847656,-0.109130859,1.037841797,0.312805176,-0.232696533,1.605987549
7.054054054,0.068847656,-0.109130859,1.037841797,0.312805176,-0.232696533,1.605987549
7.081081081,0.067382813,-0.109130859,1.030273438,3.841400146,-0.232696533,2.372741699
7.108108108,0.067382813,-0.109130859,1.030273438,3.841400146,-0.232696533,2.372741699
7.135135135,0.068359375,-0.110107422,1.034667969,3.452301025,1.369476318,0.839233398
7.162162162,0.068847656,-0.109375,1.044921875,1.491546631,-2.155303955,5.054473877
7.189189189,0.0703125,-0.11328125,1.037597656,0.316619873,2.452850342,-1.152038574
7.216216216,0.0703125,-0.11328125,1.037597656,0.316619873,2.452850342,-1.152038574
7.243243243,0.071044922,-0.115478516,1.032958984,-1.640319824,-0.617980957,1.224517822
7.27027027,0.071044922,-0.115478516,1.032958984,-1.640319824,-0.617980957,1.224517822
7.297297297,0.071044922,-0.108642578,1.037353516,-2.029418945,-1.770019531,0.457763672
7.324324324,0.071044922,-0.108642578,1.037353516,-2.029418945,-1.770019531,0.457763672
7.351351351,0.069580078,-0.112304688,1.036865234,-0.076293945,-1.770019531,-1.075744629
7.378378378,0.072509766,-0.108642578,1.037353516,1.10244751,-2.922058105,0.072479248
7.405405405,0.072509766,-0.108642578,1.037353516,1.10244751,-2.922058105,0.072479248
7.432432432,0.072021484,-0.105957031,1.034912109,2.666473389,-1.178741455,-1.457214355
7.459459459,0.072021484,-0.105957031,1.034912109,2.666473389,-1.178741455,-1.457214355
7.486486486,0.072021484,-0.112792969,1.040039063,0.709533691,-0.232696533,2.201080322
7.513513514,0.072021484,-0.112792969,1.040039063,0.709533691,-0.232696533,2.201080322
7.540540541,0.080566406,-0.11328125,1.030517578,1.491546631,-1.388549805,1.987457275
7.567567568,0.080566406,-0.11328125,1.030517578,1.491546631,-1.388549805,1.987457275
7.594594595,0.069335938,-0.111328125,1.031005859,5.409240723,-3.307342529,-1.075744629
7.621621622,0.068359375,-0.108886719,1.034912109,0.904083252,-3.307342529,4.67300415
7.648648649,0.063476563,-0.106933594,1.037597656,-3.601074219,-0.026702881,4.287719727
7.675675676,0.063476563,-0.106933594,1.037597656,-3.601074219,-0.026702881,4.287719727
7.702702703,0.067138672,-0.119140625,1.038330078,1.10244751,-1.770019531,1.224517822
7.72972973,0.067138672,-0.119140625,1.038330078,1.10244751,-1.770019531,1.224517822
7.756756757,0.0703125,-0.108642578,1.033447266,1.491546631,-3.688812256,2.696990967
7.783783784,0.0703125,-0.108642578,1.033447266,1.491546631,-3.688812256,2.696990967
7.810810811,0.077148438,-0.11328125,1.036376953,0.316619873,-0.617980957,-0.308990479
7.837837838,0.071044922,-0.108398438,1.032958984,2.666473389,-2.155303955,2.372741699
7.864864865,0.071044922,-0.108398438,1.032958984,2.666473389,-2.155303955,2.372741699
7.891891892,0.066894531,-0.102294922,1.033203125,-3.787994385,-1.003265381,1.987457275
7.918918919,0.066894531,-0.102294922,1.033203125,-3.787994385,-1.003265381,1.987457275
7.945945946,0.068359375,-0.109375,1.034179688,1.491546631,-5.611419678,1.605987549
7.972972973,0.068359375,-0.109375,1.034179688,1.491546631,-5.611419678,1.605987549
8,0.064697266,-0.106445313,1.037109375,-0.858306885,-0.587463379,0.457763672
8.027027027,0.064697266,-0.106445313,1.037109375,-0.858306885,-0.587463379,0.457763672
8.054054054,0.067871094,-0.117675781,1.035400391,-1.640319824,-2.540588379,1.224517822
8.081081081,0.067871094,-0.117675781,1.035400391,-1.640319824,-2.540588379,1.224517822
8.108108108,0.066650391,-0.100341797,1.037353516,4.234313965,-2.540588379,2.235412598
8.135135135,0.066650391,-0.100341797,1.037353516,4.234313965,-2.540588379,2.235412598
8.162162162,0.067138672,-0.106445313,1.040527344,-1.640319824,1.304626465,1.991271973
8.189189189,0.067138672,-0.106445313,1.040527344,-1.640319824,1.304626465,1.991271973
8.216216216,0.077148438,-0.112792969,1.036621094,1.10244751,-2.536773682,1.224517822
8.243243243,0.077148438,-0.112792969,1.036621094,1.10244751,-2.536773682,1.224517822
8.27027027,0.06640625,-0.104492188,1.033935547,-2.025604248,-0.23651123,0.839233398
8.297297297,0.076660156,-0.111328125,1.030761719,1.10244751,-1.739501953,2.754211426
8.324324324,0.076660156,-0.111328125,1.030761719,1.10244751,-1.739501953,2.754211426
8.351351351,0.072753906,-0.116455078,1.03515625,-0.858306885,-0.232696533,-1.075744629
8.378378378,0.067138672,-0.105224609,1.028808594,1.491546631,-0.617980957,2.620697021
8.405405405,0.067138672,-0.105224609,1.028808594,1.491546631,-0.617980957,2.620697021
8.432432432,0.069580078,-0.111083984,1.046142578,1.491546631,-0.23651123,-3.757476807
8.459459459,0.069580078,-0.111083984,1.046142578,1.491546631,-0.23651123,-3.757476807
8.486486486,0.066894531,-0.112304688,1.035400391,0.709533691,0.919342041,3.90625
8.513513514,0.066894531,-0.112304688,1.035400391,0.709533691,0.919342041,3.90625
8.540540541,0.063720703,-0.109375,1.035888672,-0.663757324,-0.23651123,0.072479248
8.567567568,0.063720703,-0.109375,1.035888672,-0.663757324,-0.23651123,0.072479248
8.594594595,0.06640625,-0.104492188,1.033203125,3.452301025,-0.617980957,3.90625
8.621621622,0.06640625,-0.104492188,1.033203125,3.452301025,-0.617980957,3.90625
8.648648649,0.072509766,-0.112060547,1.034667969,0.709533691,-1.178741455,3.90625
8.675675676,0.071044922,-0.112060547,1.041259766,1.884460449,-1.388549805,-0.137329102
8.702702703,0.071044922,-0.112060547,1.041259766,1.884460449,-1.388549805,-0.137329102
8.72972973,0.069335938,-0.109130859,1.030273438,-2.422332764,2.452850342,3.520965576
8.756756757,0.069335938,-0.109130859,1.030273438,-2.422332764,2.452850342,3.520965576
8.783783784,0.061523438,-0.110351563,1.031982422,0.316619873,-0.617980957,-0.308990479
8.810810811,0.061523438,-0.110351563,1.031982422,0.316619873,-0.617980957,-0.308990479
8.837837838,0.060546875,-0.119140625,1.044677734,-1.82723999,-2.540588379,1.987457275
8.864864865,0.060546875,-0.119140625,1.044677734,-1.82723999,-2.540588379,1.987457275
8.891891892,0.082275391,-0.112060547,1.061523438,-2.426147461,-0.617980957,3.13949585
8.918918919,0.081542969,-0.099609375,1.013427734,-2.426147461,-2.155303955,-1.842498779
8.945945946,0.081542969,-0.099609375,1.013427734,-2.426147461,-2.155303955,-1.842498779
8.972972973,0.068359375,-0.175292969,0.999511719,-1.251220703,0.919342041,-1.457214355
9,0.068359375,-0.175292969,0.999511719,-1.251220703,0.919342041,-1.457214355
9.027027027,0.103027344,-0.125732422,1.010253906,0.709533691,1.300811768,0.480651855
9.054054054,0.103027344,-0.125732422,1.010253906,0.709533691,1.300811768,0.480651855
9.081081081,0.077880859,-0.126953125,1.041015625,0.316619873,-2.155303955,-3.757476807
9.108108108,0.077880859,-0.126953125,1.041015625,0.316619873,-2.155303955,-3.757476807
9.135135135,0.068359375,-0.107666016,1.036132813,0.709533691,-1.770019531,2.754211426
9.162162162,0.068359375,-0.107666016,1.036132813,0.709533691,-1.770019531,2.754211426
9.189189189,0.064941406,-0.107666016,1.030517578,-0.461578369,-2.540588379,-1.075744629
9.216216216,0.064941406,-0.107666016,1.030517578,-0.461578369,-2.540588379,-1.075744629
9.243243243,0.067871094,-0.117431641,1.030029297,-0.465393066,0.74005127,3.90625
9.27027027,0.067871094,-0.117431641,1.030029297,-0.465393066,0.74005127,3.90625
9.297297297,0.064697266,-0.110595703,1.041503906,0.709533691,-1.003265381,1.605987549
9.324324324,0.064697266,-0.110595703,1.041503906,0.709533691,-1.003265381,1.605987549
9.351351351,0.072021484,-0.114746094,1.033935547,-0.465393066,-0.617980957,-1.876831055
9.378378378,0.063720703,-0.106445313,1.046630859,0.709533691,0.919342041,1.224517822
9.405405405,0.063720703,-0.106445313,1.046630859,0.709533691,0.919342041,1.224517822
9.432432432,0.082519531,-0.102050781,1.035644531,1.884460449,-1.003265381,1.605987549
9.459459459,0.0703125,-0.105957031,1.045410156,2.468109131,0.919342041,5.054473877
9.486486486,0.0703125,-0.105957031,1.045410156,2.468109131,0.919342041,5.054473877
9.513513514,0.073486328,-0.115478516,1.038330078,0.316619873,-0.23651123,-0.694274902
9.540540541,0.073486328,-0.115478516,1.038330078,0.316619873,-0.23651123,-0.694274902
9.567567568,0.064453125,-0.110351563,1.03515625,1.884460449,0.598907471,1.224517822
9.594594595,0.061523438,-0.112548828,1.03515625,0.709533691,-2.155303955,3.520965576
9.621621622,0.061523438,-0.112548828,1.03515625,0.709533691,-2.155303955,3.520965576
9.648648649,0.067382813,-0.113525391,1.036865234,0.709533691,-1.770019531,4.67300415
9.675675676,0.067382813,-0.113525391,1.036865234,0.709533691,-1.770019531,4.67300415
9.702702703,0.066650391,-0.112304688,1.041015625,4.234313965,-1.770019531,-1.457214355
9.72972973,0.066650391,-0.112304688,1.041015625,4.234313965,-1.770019531,-1.457214355
9.756756757,0.068603516,-0.099853516,1.040527344,3.440856934,-1.003265381,0.839233398
9.783783784,0.068603516,-0.099853516,1.040527344,3.440856934,-1.003265381,0.839233398
9.810810811,0.064453125,-0.10546875,1.030761719,-4.383087158,-2.155303955,-1.842498779
9.837837838,0.064453125,-0.10546875,1.030761719,-4.383087158,-2.155303955,-1.842498779
9.864864865,0.069580078,-0.108154297,1.036621094,0.709533691,-0.026702881,-0.308990479
9.891891892,0.069580078,-0.108154297,1.036621094,0.709533691,-0.026702881,-0.308990479
9.918918919,0.076171875,-0.106445313,1.044921875,-0.076293945,-2.536773682,0.457763672
9.945945946,0.076171875,-0.106445313,1.044921875,-0.076293945,-2.536773682,0.457763672
9.972972973,0.066162109,-0.112792969,1.036132813,-0.465393066,-0.617980957,0.667572021
10,0.066162109,-0.112792969,1.036132813,-0.465393066,-0.617980957,0.667572021
10.02702703,0.066894531,-0.102783203,1.036132813,3.059387207,-3.307342529,-1.457214355
10.05405405,0.066894531,-0.102783203,1.036132813,3.059387207,-3.307342529,-1.457214355
10.08108108,0.068603516,-0.109619141,1.034179688,2.277374268,-4.459381104,0.839233398
10.10810811,0.068603516,-0.109619141,1.034179688,2.277374268,-4.459381104,0.839233398
10.13513514,0.068115234,-0.113525391,1.041748047,0.514984131,-2.918243408,3.90625
10.16216216,0.068115234,-0.113525391,1.041748047,0.514984131,-2.918243408,3.90625
10.18918919,0.067626953,-0.111572266,1.041503906,-1.640319824,-1.564025879,0.457763672
10.21621622,0.067626953,-0.111572266,1.041503906,-1.640319824,-1.564025879,0.457763672
10.24324324,0.072998047,-0.110595703,1.036376953,0.709533691,-0.232696533,1.224517822
10.27027027,0.073974609,-0.104980469,1.031005859,1.491546631,-4.84085083,3.982543945
10.2972973,0.074462891,-0.115722656,1.031494141,-1.838684082,-0.617980957,-1.075744629
10.32432432,0.066894531,-0.096191406,1.035644531,2.666473389,-1.384735107,1.224517822
10.35135135,0.068359375,-0.106933594,1.035888672,2.059936523,-2.922058105,-0.690460205
10.37837838,0.069335938,-0.105224609,1.033447266,0.709533691,0.152587891,1.224517822
10.40540541,0.072509766,-0.111328125,1.040039063,1.491546631,-0.617980957,0.076293945
10.43243243,0.067382813,-0.112792969,1.038574219,1.491546631,-5.226135254,-2.223968506
10.45945946,0.067382813,-0.110839844,1.027587891,-0.858306885,-0.617980957,0.072479248
10.48648649,0.069824219,-0.103027344,1.029296875,-0.465393066,-1.003265381,2.410888672
10.51351351,0.0703125,-0.098876953,1.029541016,1.491546631,-2.922058105,1.224517822
10.54054054,0.065917969,-0.108886719,1.047363281,-0.076293945,-0.232696533,0.839233398
10.56756757,0.08203125,-0.116210938,1.042724609,-2.033233643,-1.770019531,1.224517822
10.59459459,0.069335938,-0.109130859,1.031494141,1.10244751,-1.384735107,1.605987549
10.62162162,0.070800781,-0.110595703,1.044433594,-2.80380249,-0.617980957,0.457763672
10.64864865,0.068359375,-0.117431641,1.033691406,2.269744873,1.686096191,-0.694274902
10.67567568,0.071289063,-0.106201172,1.040283203,-1.247406006,-1.770019531,-1.075744629
10.7027027,0.064453125,-0.101318359,1.033691406,3.452301025,-3.307342529,3.13949585
10.72972973,0.003173828,-0.111328125,1.036132813,4.627227783,0.80871582,3.13949585
10.75675676,0.063476563,-0.107666016,1.034667969,1.884460449,-1.770019531,-1.457214355
10.78378378,0.069580078,-0.107910156,1.04296875,1.10244751,-2.922058105,0.247955322
10.81081081,0.069091797,-0.099365234,1.029296875,-1.247406006,0.915527344,0.072479248
10.83783784,0.067138672,-0.110107422,1.037109375,1.10244751,-3.692626953,-0.308990479
10.86486486,0.065917969,-0.107421875,1.032470703,-0.858306885,-2.155303955,1.224517822
10.89189189,0.073486328,-0.108398438,1.040283203,-0.858306885,-1.003265381,1.991271973
10.91891892,0.061279297,-0.11328125,1.035888672,-0.465393066,-1.003265381,1.224517822
10.94594595,0.072998047,-0.112060547,1.036621094,-1.251220703,0.152587891,2.758026123
10.97297297,0.078857422,-0.105957031,1.03515625,2.666473389,-0.583648682,0.457763672
11,0.057861328,-0.106445313,1.03515625,0.709533691,-0.61416626,-1.075744629
11.02702703,0.065917969,-0.116699219,1.033935547,3.059387207,-2.922058105,2.372741699
11.05405405,0.072753906,-0.112792969,1.036621094,-0.465393066,-2.571105957,1.987457275
11.08108108,0.066650391,-0.107666016,1.038818359,0.709533691,-1.003265381,0.457763672
11.10810811,0.0703125,-0.102050781,1.037597656,-1.247406006,-2.155303955,-1.457214355
11.13513514,0.067871094,-0.109619141,1.040771484,-0.465393066,-4.077911377,2.025604248
11.16216216,0.066162109,-0.110107422,1.036865234,0.709533691,-2.155303955,0.072479248
11.18918919,0.069824219,-0.110595703,1.040771484,0.709533691,-2.922058105,-2.223968506
11.21621622,0.065185547,-0.112060547,1.031494141,1.285552979,-1.388549805,0.839233398
11.24324324,0.062744141,-0.114746094,1.041259766,0.316619873,-3.307342529,-1.457214355
11.27027027,0.064208984,-0.111328125,1.036865234,-3.204345703,-3.307342529,-0.694274902
11.2972973,0.070800781,-0.110595703,1.038330078,2.853393555,-1.388549805,2.754211426
11.32432432,0.065185547,-0.105957031,1.044189453,1.10244751,-1.770019531,2.758026123
11.35135135,0.069335938,-0.113037109,1.032958984,1.10244751,-1.178741455,1.224517822
11.37837838,0.067626953,-0.113769531,1.035644531,-0.858306885,-2.536773682,1.052856445
11.40540541,0.070800781,-0.111083984,1.038330078,-0.465393066,-0.617980957,1.605987549
11.43243243,0.063476563,-0.107421875,1.030029297,-0.858306885,-1.770019531,2.063751221
11.45945946,0.067138672,-0.103759766,1.037597656,2.277374268,-0.617980957,-1.075744629
11.48648649,0.067382813,-0.106689453,1.028564453,2.277374268,-4.07409668,-0.690460205
11.51351351,0.065673828,-0.107421875,1.034667969,2.277374268,-1.770019531,-1.457214355
11.54054054,0.071044922,-0.107421875,1.036132813,-1.640319824,-0.232696533,0.457763672
11.56756757,0.068603516,-0.112060547,1.032470703,-1.247406006,-1.388549805,1.224517822
11.59459459,0.069091797,-0.110351563,1.035400391,1.678466797,-3.307342529,0.839233398
11.62162162,0.062988281,-0.106689453,1.040771484,-0.858306885,1.605987549,3.13949585
11.64864865,0.064697266,-0.103271484,1.031982422,2.27355957,1.575469971,0.072479248
11.67567568,0.068847656,-0.107666016,1.037597656,-0.465393066,-3.688812256,-2.223968506
11.7027027,0.063476563,-0.111572266,1.045166016,-3.99017334,1.304626465,-1.914978027
11.72972973,0.074462891,-0.111328125,1.033203125,-0.076293945,0.152587891,-0.690460205
11.75675676,0.0703125,-0.107666016,1.042236328,0.316619873,-2.922058105,-0.308990479
11.78378378,0.0625,-0.112304688,1.041992188,-0.465393066,-5.611419678,-2.223968506
11.81081081,0.072998047,-0.107421875,1.035400391,-1.441955566,-1.384735107,-1.457214355
11.83783784,0.067626953,-0.105224609,1.040283203,3.047943115,-2.155303955,2.758026123
11.86486486,0.067871094,-0.11328125,1.038085938,-2.811431885,0.152587891,3.13949585
11.89189189,0.068115234,-0.108642578,1.031982422,3.452301025,0.534057617,2.372741699
11.91891892,0.068847656,-0.111083984,1.036621094,1.10244751,-3.307342529,-1.842498779
11.94594595,0.069580078,-0.110107422,1.038085938,1.10244751,-2.601623535,1.605987549
11.97297297,0.064453125,-0.136962891,1.034423828,0.709533691,-2.155303955,0.038146973
12,0.081542969,-0.087158203,1.025634766,-1.251220703,1.304626465,-0.690460205
12.02702703,0.074951172,-0.102294922,1.042236328,-0.858306885,-2.155303955,-0.308990479
12.05405405,0.071044922,-0.113769531,1.035888672,1.10244751,-1.384735107,-0.171661377
12.08108108,0.073730469,-0.109130859,1.034667969,3.841400146,-2.155303955,0.072479248
12.10810811,0.0703125,-0.110107422,1.029541016,-0.465393066,-1.770019531,0.072479248
12.13513514,0.0703125,-0.107910156,1.038330078,0.316619873,-1.384735107,-0.308990479
12.16216216,0.06640625,-0.108642578,1.036132813,2.277374268,-2.922058105,0.076293945
12.18918919,0.073242188,-0.113525391,1.036865234,-2.811431885,0.152587891,0.457763672
12.21621622,0.069580078,-0.104736328,1.038085938,3.841400146,-1.770019531,-2.990722656
12.24324324,0.067382813,-0.109130859,1.034179688,1.491546631,0.534057617,1.224517822
12.27027027,0.069580078,-0.108886719,1.048339844,3.452301025,-2.956390381,-1.842498779
12.2972973,0.069335938,-0.114013672,1.040771484,-4.383087158,-2.426147461,-1.075744629
12.32432432,0.069091797,-0.110595703,1.030761719,3.841400146,-2.922058105,-3.372192383
12.35135135,0.063232422,-0.109130859,1.032470703,-0.465393066,1.686096191,0.038146973
12.37837838,0.068603516,-0.104003906,1.03515625,1.10244751,-2.155303955,-3.372192383
12.40540541,0.070068359,-0.106201172,1.037841797,-0.465393066,0.152587891,0.839233398
12.43243243,0.068359375,-0.104980469,1.040039063,0.709533691,-3.688812256,2.758026123
12.45945946,0.072998047,-0.106445313,1.038330078,-4.383087158,-2.426147461,0.839233398
12.48648649,0.068359375,-0.110107422,1.040283203,-1.247406006,-1.770019531,1.605987549
12.51351351,0.068847656,-0.110351563,1.036376953,2.27355957,-0.23651123,1.987457275
12.54054054,0.064941406,-0.110839844,1.029541016,-3.204345703,-1.003265381,-0.694274902
12.56756757,0.067871094,-0.108886719,1.031494141,-3.99017334,-3.688812256,0.839233398
12.59459459,0.073974609,-0.108886719,1.033203125,0.709533691,-4.730224609,-2.60925293
12.62162162,0.069091797,-0.107910156,1.037109375,-0.465393066,-2.571105957,-1.457214355
12.64864865,0.070800781,-0.109863281,1.03515625,3.059387207,-0.617980957,1.605987549
12.67567568,0.071533203,-0.107910156,1.03125,-2.426147461,0.534057617,1.605987549
12.7027027,0.065917969,-0.111572266,1.036132813,1.491546631,0.152587891,-1.705169678
12.72972973,0.066894531,-0.110107422,1.037597656,0.709533691,-0.617980957,0.072479248
12.75675676,0.067871094,-0.109619141,1.042480469,-1.247406006,-1.770019531,1.987457275
12.78378378,0.064453125,-0.107177734,1.042480469,1.491546631,0.152587891,0.839233398
12.81081081,0.065429688,-0.107910156,1.040771484,0.316619873,-2.571105957,-2.60925293
12.83783784,0.071044922,-0.108398438,1.041748047,-0.076293945,-2.922058105,-3.757476807
12.86486486,0.065429688,-0.112792969,1.037353516,0.316619873,0.919342041,-0.308990479
12.89189189,0.062011719,-0.109619141,1.038085938,2.277374268,-2.746582031,1.224517822
12.91891892,0.067871094,-0.110595703,1.035888672,0.709533691,-2.155303955,2.025604248
12.94594595,0.068359375,-0.107910156,1.033203125,0.709533691,-0.23651123,1.224517822
12.97297297,0.069580078,-0.112304688,1.037597656,-3.601074219,-0.617980957,1.605987549
13,0.062988281,-0.104003906,1.036865234,2.666473389,-0.617980957,-0.099182129
13.02702703,0.0703125,-0.110107422,1.034423828,-3.2081604,-2.536773682,2.372741699
13.05405405,0.070068359,-0.106445313,1.0390625,0.709533691,-0.617980957,0.076293945
13.08108108,0.071044922,-0.108886719,1.033447266,-0.465393066,-2.922058105,2.372741699
13.10810811,0.068115234,-0.115966797,1.044189453,-2.422332764,-0.23651123,0.839233398
13.13513514,0.070800781,-0.101074219,1.032958984,-1.251220703,-1.384735107,-0.308990479
13.16216216,0.072265625,-0.105712891,1.037353516,1.678466797,-1.003265381,-1.075744629
13.18918919,0.064208984,-0.110351563,1.036376953,0.316619873,2.552032471,3.520965576
13.21621622,0.069335938,-0.107666016,1.037109375,0.316619873,-1.21307373,1.224517822
13.24324324,0.059326172,-0.106933594,1.041992188,-2.033233643,-1.178741455,1.605987549
13.27027027,0.067871094,-0.108398438,1.033447266,-2.426147461,-1.770019531,1.224517822
13.2972973,0.0703125,-0.109375,1.0390625,0.709533691,-2.922058105,-0.308990479
13.32432432,0.0703125,-0.110351563,1.036621094,-0.465393066,-3.688812256,-0.308990479
13.35135135,0.072265625,-0.110351563,1.030761719,-1.625061035,-0.232696533,0.076293945
13.37837838,0.068847656,-0.107666016,1.036865234,-0.076293945,-1.003265381,-1.842498779
13.40540541,0.06640625,-0.112548828,1.038330078,0.709533691,-0.617980957,1.991271973
13.43243243,0.066894531,-0.110839844,1.035644531,-3.2081604,-0.617980957,0.457763672
13.45945946,0.062255859,-0.106445313,1.037353516,1.10244751,0.152587891,2.758026123
13.48648649,0.066894531,-0.114013672,1.040283203,0.316619873,0.358581543,2.372741699
13.51351351,0.065185547,-0.104980469,1.038330078,1.884460449,0.534057617,1.224517822
13.54054054,0.062744141,-0.110107422,1.033691406,1.491546631,-3.307342529,0.839233398
13.56756757,0.065429688,-0.109375,1.03515625,-2.815246582,-3.753662109,-2.990722656
13.59459459,0.068847656,-0.113037109,1.039306641,-2.815246582,-0.232696533,-0.728607178
13.62162162,0.069335938,-0.112060547,1.035644531,0.709533691,-3.307342529,3.13949585
13.64864865,0.067871094,-0.109619141,1.032714844,-0.858306885,0.919342041,-1.075744629
13.67567568,0.065185547,-0.105957031,1.031982422,-0.076293945,0.919342041,-0.385284424
13.7027027,0.072021484,-0.107421875,1.038085938,-2.815246582,0.534057617,0.457763672
13.72972973,0.065673828,-0.113525391,1.037597656,2.27355957,-2.155303955,0.072479248
13.75675676,0.066894531,-0.111572266,1.03125,-0.267028809,-1.003265381,1.605987549
13.78378378,0.065429688,-0.109130859,1.026855469,-0.659942627,-1.770019531,-0.308990479
13.81081081,0.06640625,-0.108398438,1.033447266,-2.033233643,-2.395629883,-1.075744629
13.83783784,0.076171875,-0.110839844,1.037353516,0.316619873,-1.003265381,1.224517822
13.86486486,0.067871094,-0.108642578,1.032714844,-1.247406006,-2.605438232,1.224517822
13.89189189,0.059814453,-0.106689453,1.043701172,0.709533691,0.148773193,2.754211426
13.91891892,0.067382813,-0.112792969,1.035644531,1.10244751,-0.617980957,0.457763672
13.94594595,0.068115234,-0.112304688,1.035400391,-2.815246582,0.152587891,1.605987549
13.97297297,0.071289063,-0.110839844,1.040039063,2.666473389,-2.155303955,0.839233398
14,0.066894531,-0.106201172,1.043457031,0.709533691,-1.770019531,0.839233398
14.02702703,0.073974609,-0.1171875,1.036621094,-0.659942627,-0.232696533,1.991271973
14.05405405,0.068359375,-0.111572266,1.040039063,3.452301025,-1.003265381,-1.075744629
14.08108108,0.071044922,-0.103759766,1.036621094,-1.640319824,-2.155303955,0.457763672
14.10810811,0.065429688,-0.111572266,1.0390625,-0.461578369,0.148773193,2.372741699
14.13513514,0.068359375,-0.109130859,1.0390625,1.686096191,-1.388549805,0.457763672
14.16216216,0.070068359,-0.105712891,1.029052734,-3.597259521,-4.459381104,1.605987549
14.18918919,0.071533203,-0.106933594,1.042480469,-1.640319824,-0.232696533,1.605987549
14.21621622,0.0703125,-0.107666016,1.039306641,-0.858306885,-2.536773682,0.457763672
14.24324324,0.068847656,-0.113769531,1.034179688,1.491546631,-1.770019531,-0.938415527
14.27027027,0.072753906,-0.104736328,1.036865234,-0.076293945,-2.536773682,1.644134521
14.2972973,0.075439453,-0.109619141,1.038330078,-2.033233643,-1.003265381,0.457763672
14.32432432,0.067138672,-0.112060547,1.039794922,-1.251220703,-1.003265381,-0.308990479
14.35135135,0.071777344,-0.112304688,1.043212891,-0.076293945,-1.770019531,1.991271973
14.37837838,0.069335938,-0.110351563,1.036132813,2.277374268,-2.155303955,2.372741699
14.40540541,0.073974609,-0.107666016,1.033447266,-1.251220703,0.534057617,1.605987549
14.43243243,0.069091797,-0.107177734,1.03125,1.293182373,-1.384735107,2.758026123
14.45945946,0.068603516,-0.107177734,1.034423828,2.277374268,-2.155303955,1.224517822
14.48648649,0.075439453,-0.114501953,1.030029297,2.666473389,-3.307342529,0.839233398
14.51351351,0.069824219,-0.105224609,1.036132813,-3.2081604,-1.354217529,0.839233398
14.54054054,0.067871094,-0.10546875,1.037109375,-1.251220703,-1.384735107,1.644134521
14.56756757,0.070068359,-0.103759766,1.034179688,0.709533691,-1.003265381,0.457763672
14.59459459,0.067626953,-0.108642578,1.034667969,-0.076293945,-1.384735107,-2.60925293
14.62162162,0.066162109,-0.109863281,1.038085938,1.491546631,-2.536773682,-2.548217773
14.64864865,0.063720703,-0.110107422,1.035400391,2.277374268,-3.307342529,0.457763672
14.67567568,0.063964844,-0.107910156,1.027832031,1.10244751,-4.459381104,1.605987549
14.7027027,0.067138672,-0.103271484,1.041748047,-2.613067627,-1.770019531,4.287719727
14.72972973,0.0703125,-0.114501953,1.034912109,-0.076293945,-1.384735107,0.457763672
14.75675676,0.075195313,-0.107910156,1.033203125,-1.251220703,-1.384735107,0.076293945
14.78378378,0.063232422,-0.113769531,1.034423828,1.873016357,-1.003265381,0.839233398
14.81081081,0.071289063,-0.114990234,1.039794922,-1.251220703,-4.138946533,0.076293945
14.83783784,0.066650391,-0.109130859,1.035888672,-1.251220703,-2.361297607,1.224517822
14.86486486,0.062255859,-0.104980469,1.038574219,-0.465393066,-0.617980957,0.076293945
14.89189189,0.070556641,-0.104003906,1.031005859,0.709533691,-0.232696533,-1.075744629
14.91891892,0.064208984,-0.115722656,1.034179688,-2.033233643,0.534057617,2.758026123
14.94594595,0.061279297,-0.099609375,1.040283203,1.884460449,-3.307342529,0.629425049
14.97297297,0.071777344,-0.114257813,1.033691406,1.10244751,-0.617980957,0.839233398
15,0.066162109,-0.108154297,1.042480469,-1.640319824,-2.155303955,0.457763672
15.02702703,0.0703125,-0.110107422,1.039550781,-0.85067749,1.304626465,0.839233398
15.05405405,0.071533203,-0.109863281,1.040527344,-2.033233643,-2.155303955,-0.690460205
15.08108108,0.068603516,-0.111328125,1.036621094,0.900268555,-1.770019531,-1.075744629
15.10810811,0.069824219,-0.103271484,1.039550781,3.452301025,0.919342041,1.991271973
15.13513514,0.074707031,-0.111083984,1.044921875,2.666473389,-1.384735107,0.839233398
15.16216216,0.068603516,-0.101806641,1.036865234,-2.426147461,-0.408172607,0.839233398
15.18918919,0.075683594,-0.107421875,1.026611328,0.709533691,-0.617980957,-0.171661377
15.21621622,0.071777344,-0.108886719,1.036376953,1.884460449,-2.922058105,2.27355957
15.24324324,0.069091797,-0.25390625,1.015625,-2.815246582,-2.155303955,-2.990722656
15.27027027,0.121337891,-0.003173828,1.039794922,0.709533691,0.919342041,3.13949585
15.2972973,-0.114257813,-0.287841797,1.262451172,5.214691162,-7.530212402,1.991271973
15.32432432,0.298095703,0.284667969,0.774169922,-1.640319824,2.456665039,5.439758301
15.35135135,0.086669922,0.256347656,1.288330078,1.491546631,-9.834289551,-1.457214355
15.37837838,0.076171875,-0.199707031,1.184814453,3.452301025,-2.395629883,-0.690460205
15.40540541,0.082519531,-0.053222656,0.950927734,3.452301025,-3.307342529,-1.842498779
15.43243243,0.104980469,-0.041992188,1.126220703,3.841400146,-2.922058105,4.67300415
15.45945946,-0.064208984,-0.204101563,0.948242188,1.491546631,-4.459381104,-0.690460205
15.48648649,-0.011962891,-0.184814453,1.010742188,-2.033233643,0.919342041,-1.842498779
15.51351351,0.047851563,-0.125976563,1.05859375,1.491546631,-1.384735107,4.287719727
15.54054054,0.049316406,-0.102050781,1.050048828,-3.601074219,2.456665039,2.372741699
15.56756757,0.075439453,-0.162841797,1.011474609,-0.465393066,1.304626465,2.372741699
15.59459459,0.074462891,-0.210449219,1.302490234,3.452301025,-2.536773682,5.821228027
15.62162162,0.104248047,-0.442382813,0.905761719,16.37649536,-2.922058105,10.03646851
15.64864865,0.091796875,-0.061035156,0.963134766,-0.461578369,5.142211914,7.354736328
15.67567568,0.053955078,-0.190429688,1.095703125,-0.076293945,-1.384735107,-4.524230957
15.7027027,-0.080322266,0.072021484,0.900390625,1.884460449,-2.155303955,4.287719727
15.72972973,-0.096679688,-0.181396484,1.044677734,-1.052856445,-2.155303955,-3.37600708
15.75675676,-0.062255859,-0.048583984,0.947753906,0.316619873,-2.571105957,-12.18414307
15.78378378,0.094482422,-0.129882813,1.012695313,-0.858306885,-2.12097168,8.502960205
15.81081081,0.152099609,-0.164306641,0.989990234,-3.601074219,0.534057617,-3.410339355
15.83783784,0.020019531,-0.078857422,1.041503906,-4.379272461,0.148773193,0.839233398
15.86486486,0.094970703,-0.214111328,1.138916016,2.27355957,-2.540588379,2.853393555
15.89189189,0.000244141,-0.118652344,1.1953125,1.884460449,-4.077911377,2.372741699
15.91891892,0.372070313,-0.271484375,1.030273438,6.973266602,-7.5340271,1.987457275
15.94594595,-0.064941406,-0.185546875,1.144287109,1.6746521,-11.37161255,-4.524230957
15.97297297,0.150390625,-0.15625,0.942138672,2.277374268,-2.155303955,9.269714355
16,0.130615234,-0.09765625,0.995605469,-1.247406006,-0.617980957,-2.990722656
16.02702703,0.029052734,-0.129882813,1.077392578,0.705718994,-3.692626953,-0.694274902
16.05405405,0.406738281,-0.260253906,1.131347656,-0.465393066,2.105712891,13.48495483
16.08108108,0.093017578,-0.388427734,0.739746094,11.28387451,-0.617980957,7.736206055
16.10810811,0.031494141,-0.3515625,1.083007813,3.059387207,-4.84085083,8.502960205
16.13513514,0.19921875,0.188232422,1.236083984,-1.640319824,-1.354217529,-2.990722656
16.16216216,-0.467529297,0.493652344,1.545898438,-5.165100098,1.686096191,-12.56942749
16.18918919,-0.191162109,-0.453369141,0.976318359,3.452301025,-14.06097412,-7.587432861
16.21621622,0.757324219,0.279296875,0.995117188,-6.343841553,5.527496338,-0.308990479
16.24324324,0.102539063,0.156982422,0.963867188,-6.732940674,-4.07409668,-1.842498779
16.27027027,0.004638672,-0.343017578,1.020263672,-1.640319824,3.99017334,6.587982178
16.2972973,0.432373047,-0.197265625,0.863769531,-12.99285889,-5.611419678,-17.1661377
16.32432432,-0.149902344,-0.226318359,1.490722656,7.926940918,-4.844665527,18.08166504
16.35135135,0.332763672,0.500488281,1.213378906,1.10244751,-6.061553955,13.09967041
16.37837838,0.354492188,-0.504882813,0.910644531,8.544921875,-2.84576416,-5.290985107
16.40540541,0.397949219,-0.108886719,1.239257813,-0.465393066,-3.688812256,4.8828125
16.43243243,0.631103516,-0.070800781,1.083496094,-8.30078125,-3.307342529,4.67300415
16.45945946,-0.103271484,-0.049072266,1.241943359,-5.165100098,8.602142334,9.651184082
16.48648649,-0.143066406,-0.591064453,1.087646484,-1.247406006,3.99017334,1.930236816
16.51351351,0.216308594,0.709716797,1.490722656,3.829956055,-9.0675354,7.736206055
16.54054054,0.254150391,0.298095703,0.982666016,-10.64300537,-0.23651123,0.072479248
16.56756757,0.356445313,-0.550048828,1.104980469,-0.858306885,0.534057617,-2.223968506
16.59459459,0.230224609,-0.078857422,1.260742188,0.709533691,7.064819336,4.287719727
16.62162162,-0.083496094,-0.671875,0.71875,-2.426147461,-4.062652588,-6.439208984
16.64864865,0.343017578,-0.265869141,0.393554688,-0.873565674,1.304626465,0.076293945
16.67567568,-0.150146484,0.268310547,0.881103516,-2.033233643,-8.30078125,1.991271973
16.7027027,0.00390625,0.613037109,0.961669922,3.448486328,-1.770019531,-6.439208984
16.72972973,-0.028320313,-0.690917969,0.981201172,-10.25390625,8.213043213,7.232666016
16.75675676,0.047851563,0.288330078,1.117919922,-2.426147461,-3.349304199,-20.2331543
16.78378378,0.274658203,-0.544433594,0.970947266,7.759094238,7.45010376,6.587982178
16.81081081,-0.09375,-0.437744141,1.394287109,9.719848633,-12.52365112,8.960723877
16.83783784,0.109863281,0.16796875,1.173828125,2.277374268,-1.770019531,-7.221221924
16.86486486,0.148681641,0.248046875,0.711914063,-0.465393066,7.064819336,6.393432617
16.89189189,0.136230469,0.261230469,0.768066406,-0.858306885,-12.1383667,2.758026123
16.91891892,0.154785156,0.125,1.413330078,-3.2081604,-1.384735107,-10.26916504
16.94594595,-0.148681641,-0.645751953,0.823974609,-3.601074219,-2.922058105,13.09967041
16.97297297,0.119873047,0.236083984,0.741699219,1.10244751,2.071380615,-0.690460205
17,-0.167724609,-0.822753906,1.200927734,-2.220153809,-2.155303955,0.076293945
17.02702703,0.200439453,-0.413574219,1.194824219,13.02337646,-2.155303955,-4.138946533
17.05405405,0.127441406,-0.306884766,1.102050781,1.491546631,-8.30078125,-7.587432861
17.08108108,-0.103515625,-0.375488281,1.281494141,3.059387207,6.679534912,-0.690460205
17.10810811,-0.110595703,-0.567626953,1.155517578,6.58416748,-5.226135254,2.372741699
17.13513514,0.301269531,-0.576660156,0.714355469,-2.426147461,-0.617980957,-6.820678711
17.16216216,-0.260742188,-0.562988281,1.134033203,3.059387207,-5.226135254,6.8359375
17.18918919,-0.128417969,0.174072266,1.182617188,4.627227783,3.608703613,0.839233398
17.21621622,0.153076172,-0.184814453,0.919433594,2.864837646,-3.692626953,-3.757476807
17.24324324,0.045898438,0.089355469,1.084960938,5.405426025,-3.658294678,1.224517822
17.27027027,-0.047607422,0.118164063,1.257568359,1.491546631,-0.999450684,-2.990722656
17.2972973,0.099121094,-0.221191406,1.056152344,1.884460449,0.713348389,3.524780273
17.32432432,0.159179688,-0.129882813,0.985839844,1.491546631,-0.617980957,0.076293945
17.35135135,-0.350341797,0.1796875,1.259521484,5.016326904,-6.378173828,5.191802979
17.37837838,-0.053710938,-0.446289063,1.163085938,-4.772186279,-3.692626953,-4.623413086
17.40540541,0.220214844,-0.51171875,0.594726563,2.277374268,0.152587891,9.269714355
17.43243243,0.131591797,0.221435547,1.096679688,-2.033233643,8.602142334,-6.439208984
17.45945946,0.386962891,0.196533203,0.86328125,-2.815246582,-0.232696533,-2.60925293
17.48648649,0.007080078,-0.045654297,0.748779297,-3.99017334,-1.770019531,3.13949585
17.51351351,-0.012695313,-0.276855469,0.803222656,2.277374268,-1.003265381,1.605987549
17.54054054,0.093994141,-0.062011719,1.094238281,-0.85067749,-7.148742676,0.076293945
17.56756757,0.274658203,-0.095458984,1.059082031,-4.56237793,1.300811768,1.224517822
17.59459459,0.114746094,-0.126220703,1.017578125,1.10244751,3.604888916,3.90625
17.62162162,-0.014160156,-0.442871094,0.829833984,1.884460449,1.304626465,0.839233398
17.64864865,-0.151611328,0.030029297,1.392089844,1.491546631,-1.289367676,1.224517822
17.67567568,0.08203125,-0.108154297,0.959960938,-1.251220703,0.919342041,-8.739471436
17.7027027,-0.050048828,-0.031738281,0.879638672,-1.251220703,-3.307342529,4.783630371
17.72972973,-0.079345703,-0.170898438,1.228271484,4.234313965,5.142211914,-6.378173828
17.75675676,0.234130859,-0.204589844,1.099853516,-2.815246582,-2.922058105,1.224517822
17.78378378,0.201171875,-0.175048828,0.799316406,0.316619873,-4.077911377,-7.587432861
17.81081081,0.185791016,0.120361328,1.296142578,-7.122039795,2.838134766,5.435943604
17.83783784,0.135498047,-0.029052734,1.033935547,-1.052856445,7.064819336,-2.60925293
17.86486486,0.140136719,-0.225341797,0.937011719,3.059387207,-1.209259033,1.224517822
17.89189189,0.069580078,-0.249267578,1.098144531,1.491546631,-4.459381104,8.121490479
17.91891892,0.163085938,-0.336425781,0.926269531,2.277374268,-6.378173828,-2.372741699
17.94594595,-0.178710938,-0.758544922,0.708984375,3.841400146,-4.459381104,1.991271973
17.97297297,0.116210938,-0.054931641,1.115234375,0.709533691,-4.07409668,4.67300415
18,-0.008789063,-0.258544922,0.951171875,4.234313965,-2.536773682,-1.457214355
18.02702703,0.215820313,-0.224365234,0.912353516,1.491546631,3.223419189,7.392883301
18.05405405,0.046142578,0.030029297,1.297607422,-7.518768311,-2.155303955,-11.01303101
18.08108108,0.1328125,-0.035888672,0.576660156,-1.640319824,-1.384735107,4.287719727
18.10810811,-0.166503906,-0.158935547,1.313720703,-7.518768311,3.223419189,0.076293945
18.13513514,-0.020751953,-0.435546875,1.145996094,3.444671631,-4.07409668,-6.439208984
18.16216216,0.283203125,0.052246094,1.008789063,4.03213501,-2.155303955,3.13949585
18.18918919,0.059082031,-0.058349609,0.482421875,-2.426147461,-1.068115234,-1.075744629
18.21621622,0.011962891,-0.17578125,0.949462891,-4.776000977,-7.915496826,-0.308990479
18.24324324,0.5625,-0.239501953,1.263427734,-0.858306885,6.298065186,0.457763672
18.27027027,0.075439453,-0.075683594,0.837890625,-6.343841553,7.274627686,-0.308990479
18.2972973,-0.069824219,-0.098144531,1.05078125,5.409240723,-2.155303955,-3.005981445
18.32432432,0.245849609,0.291503906,1.176269531,-10.65063477,-0.232696533,-10.26916504
18.35135135,-0.375244141,-0.338378906,1.424804688,3.059387207,-7.148742676,3.520965576
18.37837838,0.122558594,-0.019287109,0.708740234,-0.858306885,-3.688812256,-3.433227539
18.40540541,-0.21484375,0.194580078,0.784912109,-0.858306885,0.152587891,8.937835693
18.43243243,-0.070068359,-0.344726563,0.983886719,1.884460449,-4.07409668,2.758026123
18.45945946,0.221435547,-0.229736328,1.128173828,-1.636505127,-2.536773682,-2.223968506
18.48648649,0.135253906,-0.085205078,1.357177734,-0.465393066,-8.682250977,-2.990722656
18.51351351,0.002441406,0.117919922,1.017578125,5.016326904,0.919342041,-1.457214355
18.54054054,-0.308837891,-0.114746094,0.673095703,-3.379821777,-6.378173828,4.287719727
18.56756757,0.052978516,-0.319335938,1.104736328,1.10244751,3.99017334,3.90625
18.59459459,-0.084472656,0.2109375,1.355957031,0.316619873,-0.617980957,0.076293945
18.62162162,-0.083496094,0.072998047,1.061279297,-2.033233643,-1.003265381,3.520965576
18.64864865,-0.077392578,-0.348388672,1.103515625,-2.815246582,-2.361297607,1.224517822
18.67567568,0.118408203,0.051757813,1.216796875,-0.858306885,-7.148742676,7.354736328
18.7027027,0.030273438,-0.278320313,1.323242188,-3.2081604,3.99017334,-3.69644165
18.72972973,0.253417969,-0.333496094,1.219238281,-2.815246582,-4.07409668,7.354736328
18.75675676,0.075683594,-0.046386719,1.044677734,5.207061768,4.375457764,0.839233398
18.78378378,0.348632813,0.244140625,1.367675781,3.059387207,-2.155303955,11.56997681
18.81081081,0.426269531,-0.341552734,1.036865234,-8.30078125,3.99017334,-7.972717285
18.83783784,0.158691406,0.383300781,1.523681641,-6.359100342,-0.232696533,9.651184082
18.86486486,0.146972656,-0.348144531,0.599121094,-1.041412354,-0.617980957,-6.053924561
18.89189189,0.178466797,-0.342529297,0.959960938,-12.61138916,0.820159912,2.372741699
18.91891892,0.628417969,0.225341797,1.479003906,15.2015686,10.90621948,18.84841919
18.94594595,0.293457031,0.293212891,1.274902344,3.059387207,5.001068115,40.30227661
18.97297297,-0.341064453,-0.021972656,1.483642578,10.10894775,-17.13180542,5.836486816
19,0.323486328,0.008056641,0.562988281,-1.251220703,-14.06097412,8.888244629
19.02702703,-0.115722656,-0.023681641,0.439208984,1.10244751,0.152587891,14.25170898
19.05405405,0.0078125,0.094238281,1.307373047,-3.2081604,1.304626465,-14.34707642
19.08108108,0.137939453,0.279541016,1.075927734,1.491546631,-1.770019531,0.839233398
19.10810811,0.143310547,0.347900391,0.912353516,2.277374268,5.912780762,5.054473877
19.13513514,0.084228516,-0.113037109,0.998046875,-2.422332764,1.300811768,-1.842498779
19.16216216,0.049804688,0.221435547,1.239746094,1.10244751,-7.915496826,1.991271973
19.18918919,0.062011719,0.248291016,1.194335938,-2.426147461,-7.911682129,5.054473877
19.21621622,0.024169922,-0.577392578,0.604248047,1.098632813,-3.303527832,-4.52041626
19.24324324,0.015625,-0.045898438,1.162841797,-0.858306885,-8.014678955,-0.690460205
19.27027027,0.122070313,-0.338623047,0.984130859,-8.30078125,-4.459381104,-1.457214355
19.2972973,0.187988281,-0.293457031,0.771972656,-0.858306885,3.223419189,2.620697021
19.32432432,0.167480469,0.205078125,1.197509766,-1.251220703,0.534057617,2.372741699
19.35135135,-0.158691406,-0.340087891,0.923583984,5.409240723,-1.770019531,8.502960205
19.37837838,0.254882813,0.044189453,1.353271484,3.829956055,1.304626465,-5.290985107
19.40540541,0.159179688,-0.513671875,1.150878906,-4.776000977,2.838134766,0.457763672
19.43243243,0.145507813,0.254638672,1.103271484,5.016326904,4.726409912,8.121490479
19.45945946,0.131835938,0.016601563,1.165527344,-7.888793945,-3.307342529,-8.739471436
19.48648649,0.352050781,-0.527587891,0.781738281,4.03213501,-9.0675354,10.41793823
19.51351351,-0.090332031,0.091064453,1.146728516,2.666473389,0.534057617,2.372741699
19.54054054,0.061279297,-0.019287109,0.975097656,-2.815246582,1.304626465,5.054473877
19.56756757,-0.181884766,-0.202880859,1.236083984,4.623413086,-6.759643555,0.076293945
19.59459459,0.317382813,-0.551025391,0.8671875,-0.465393066,-1.800537109,2.372741699
19.62162162,0.165283203,0.135009766,1.189697266,4.627227783,-4.459381104,4.215240479
19.64864865,0.123779297,-0.410400391,1.063964844,5.802154541,-5.226135254,-4.981994629
19.67567568,-0.042724609,0.043212891,0.770507813,-3.601074219,-3.688812256,10.55526733
19.7027027,-0.201416016,-0.065673828,1.302734375,-0.465393066,0.919342041,-9.502410889
19.72972973,-0.056396484,-0.378173828,1.168457031,5.409240723,6.298065186,18.84841919
19.75675676,0.144287109,-0.083740234,0.999755859,-6.343841553,1.686096191,-14.86968994
19.78378378,0.064208984,-0.177490234,1.112792969,-2.815246582,-0.232696533,5.821228027
19.81081081,-0.163574219,0.009277344,1.252685547,7.759094238,-8.682250977,10.80322266
19.83783784,0.088623047,-0.530517578,0.920654297,1.884460449,-11.37161255,-7.587432861
19.86486486,0.088867188,-0.177490234,1.071044922,-0.465393066,-2.536773682,5.054473877
19.89189189,0.235595703,-0.269042969,0.967529297,1.884460449,-1.770019531,-2.223968506
19.91891892,0.071533203,-0.040771484,1.134521484,-3.99017334,0.885009766,-2.60925293
19.94594595,0.038574219,-0.080078125,1.189453125,-0.076293945,-2.155303955,6.587982178
19.97297297,0.131835938,-0.434814453,0.889648438,6.58416748,-3.688812256,-2.990722656
20,0.236328125,0.230224609,0.985351563,2.277374268,-1.003265381,3.982543945
20.02702703,-0.053710938,-0.422851563,1.001464844,-0.076293945,0.152587891,-6.053924561
20.05405405,0.167480469,0.031005859,1.171630859,9.719848633,-1.003265381,8.888244629
20.08108108,0.032226563,-0.222167969,1.186035156,6.191253662,-6.763458252,-1.075744629
20.10810811,-0.245605469,0.036376953,0.980712891,-12.81356812,-40.56167603,42.60253906
20.13513514,0.433837891,-0.991455078,0.953369141,9.521484375,90.79742432,-39.77203369
20.16216216,-0.072753906,-0.389892578,0.880615234,-2.033233643,1.06048584,-12.18414307
20.18918919,0.024658203,0.094970703,1.375488281,-0.076293945,-4.07409668,-4.425048828
20.21621622,0.008300781,-0.218261719,0.923583984,4.627227783,-2.536773682,6.969451904
20.24324324,-0.200195313,-0.216064453,0.946289063,3.059387207,-0.232696533,-2.223968506
20.27027027,-0.142089844,0.084228516,1.045410156,1.884460449,-1.770019531,7.392883301
20.2972973,0.019775391,-0.037353516,1.084716797,1.884460449,-1.003265381,-3.372192383
20.32432432,0.085449219,-0.239501953,1.083007813,1.091003418,-0.617980957,3.13949585
20.35135135,0.059814453,0.063476563,1.2421875,-3.601074219,-0.232696533,1.605987549
20.37837838,-0.498535156,-0.648681641,-0.266845703,-25.52032471,3.223419189,-12.95471191
20.40540541,0.213134766,0.372558594,1.143798828,5.5809021,-33.26797485,17.69638062
20.43243243,-0.295654297,-0.247558594,0.973876953,-6.732940674,-5.325317383,-5.672454834
20.45945946,0.058349609,0.038574219,0.817871094,8.934020996,-12.52365112,7.736206055
20.48648649,0.246826172,0.00390625,0.850097656,-0.858306885,-5.226135254,-3.757476807
20.51351351,0.18359375,-0.397216797,1.028808594,2.666473389,-3.833770752,11.56997681
20.54054054,0.339111328,-0.267822266,0.893798828,1.10244751,2.456665039,4.154205322
20.56756757,-0.257568359,0.218261719,1.074462891,-4.383087158,-4.07409668,4.039764404
20.59459459,-0.076660156,-0.029785156,0.713623047,-2.426147461,2.838134766,-2.891540527
20.62162162,-0.118408203,-0.026367188,0.881835938,3.452301025,-5.226135254,-3.757476807
20.64864865,0.151855469,-0.135986328,1.02734375,1.491546631,1.689910889,8.121490479
20.67567568,-0.054199219,-0.017578125,0.933349609,0.316619873,2.841949463,2.758026123
20.7027027,0.339599609,0.432128906,1.388427734,-3.99017334,-16.75033569,15.39993286
20.72972973,0.069335938,-0.334716797,1.1328125,-0.858306885,-4.173278809,2.758026123
20.75675676,0.165283203,-0.045166016,0.884521484,0.316619873,-0.617980957,-3.757476807
20.78378378,-0.228027344,0.002685547,0.953125,-0.858306885,-6.378173828,6.969451904
20.81081081,-0.249511719,-0.066894531,1.185302734,1.491546631,6.988525391,6.969451904
20.83783784,0.168212891,-0.181152344,1.281982422,2.277374268,0.919342041,5.64956665
20.86486486,0.131835938,0.073730469,1.097900391,-5.950927734,-2.155303955,-3.372192383
20.89189189,0.028808594,-0.281738281,1.065429688,0.316619873,-2.155303955,7.293701172
20.91891892,0.065429688,-0.146240234,0.890380859,3.452301025,-1.770019531,-0.518798828
20.94594595,0.029541016,-0.103271484,1.200683594,1.491546631,-1.770019531,1.224517822
20.97297297,0.092041016,0.041748047,0.769775391,-2.605438232,-2.155303955,0.457763672
21,0.107421875,-0.0390625,0.882568359,-0.858306885,-2.536773682,-1.457214355
21.02702703,-0.022216797,-0.072753906,0.83984375,-0.648498535,-4.459381104,-2.60925293
21.05405405,0.182373047,-0.185546875,1.014160156,1.491546631,0.438690186,3.13949585
21.08108108,0.164550781,0.125244141,1.260253906,-5.165100098,0.503540039,4.67300415
21.10810811,0.113037109,-0.321533203,1.023925781,2.277374268,-3.688812256,-0.408172607
21.13513514,0.166748047,0.201904297,1.139404297,1.884460449,-3.307342529,3.90625
21.16216216,-0.095703125,0.131835938,1.166992188,-6.343841553,1.304626465,2.758026123
21.18918919,-0.158691406,-0.261962891,0.871826172,5.802154541,-4.07409668,2.410888672
21.21621622,0.055908203,0.135986328,0.873046875,0.316619873,0.537872314,-0.308990479
21.24324324,-0.064941406,-0.361572266,0.809814453,-0.858306885,-5.226135254,0.076293945
21.27027027,0.098632813,-0.465576172,0.834228516,1.502990723,2.071380615,4.287719727
21.2972973,-0.002685547,0.150878906,1.173583984,-3.2081604,0.534057617,-2.223968506
21.32432432,0.128173828,0.087646484,1.055664063,-0.465393066,-0.617980957,3.13949585
21.35135135,0.245605469,-0.302978516,0.830078125,0.907897949,-4.07409668,-5.290985107
21.37837838,0.247314453,0.223388672,1.023681641,-4.188537598,1.304626465,-0.308990479
21.40540541,-0.130615234,-0.267578125,0.947021484,-0.465393066,-2.922058105,0.076293945
21.43243243,-0.073974609,-0.303710938,1.045654297,3.841400146,0.919342041,1.605987549
21.45945946,0.22265625,-0.100341797,1.028076172,-1.640319824,-2.811431885,-5.290985107
21.48648649,-0.036865234,0.021972656,1.065673828,-0.858306885,-4.07409668,0.839233398
21.51351351,0.244140625,-0.223144531,1.000732422,-1.251220703,-2.536773682,0.076293945
21.54054054,0.168701172,0.081298828,1.099609375,-2.426147461,-1.384735107,-6.820678711
21.56756757,-0.023193359,-0.16796875,0.9375,5.409240723,-2.536773682,7.60269165
21.59459459,0.237548828,-0.086669922,0.618896484,2.277374268,-4.459381104,-2.60925293
21.62162162,-0.085449219,-0.052490234,1.366210938,-4.776000977,-3.307342529,-1.842498779
21.64864865,0.442138672,0.352294922,1.371582031,-5.744934082,3.608703613,8.121490479
21.67567568,-0.00390625,-0.728271484,1.127685547,2.094268799,-5.226135254,1.224517822
21.7027027,-0.047363281,-0.088378906,1.199951172,-2.819061279,-3.303527832,0.076293945
21.72972973,0.171142578,-0.235595703,0.847167969,-0.465393066,-1.770019531,5.821228027
21.75675676,0.081054688,-0.046875,0.982910156,-0.465393066,0.919342041,1.605987549
21.78378378,-0.195556641,-0.167480469,1.165283203,1.884460449,-7.389068604,-2.60925293
21.81081081,-0.025146484,-0.471679688,0.735839844,3.059387207,-0.999450684,-0.457763672
21.83783784,-0.106445313,0.190673828,0.974853516,0.316619873,-4.84085083,-6.820678711
21.86486486,0.021484375,-0.226318359,1.016357422,-2.819061279,0.919342041,1.609802246
21.89189189,-0.015136719,-0.041748047,1.052246094,2.666473389,1.689910889,-1.953125
21.91891892,-0.003417969,-0.254150391,0.885742188,-0.465393066,0.919342041,0.839233398
21.94594595,0.028076172,0.198974609,0.647705078,1.491546631,0.919342041,-0.690460205
21.97297297,0.257324219,-0.051513672,1.084228516,0.896453857,-2.536773682,-2.60925293
22,0.075195313,0.157714844,1.094726563,-0.858306885,0.328063965,3.13949585
22.02702703,-0.087890625,-0.476318359,0.693359375,-0.076293945,1.304626465,0.457763672
22.05405405,-0.112548828,0.296386719,1.035400391,0.316619873,-1.003265381,2.758026123
22.08108108,0.139160156,-0.127929688,1.036376953,-0.465393066,0.152587891,-1.075744629
22.10810811,0.14453125,-0.141357422,0.947509766,-0.076293945,-0.617980957,2.372741699
22.13513514,-0.180908203,-0.059326172,1.271972656,0.316619873,-5.226135254,-4.52041626
22.16216216,0.089355469,-0.165039063,0.782714844,-0.858306885,-5.226135254,4.291534424
22.18918919,0.203613281,-0.192382813,0.809326172,-1.430511475,-3.688812256,2.372741699
22.21621622,-0.110107422,-0.006103516,1.017089844,-3.99017334,-2.922058105,0.076293945
22.24324324,0.101318359,-0.143798828,1.032226563,-0.076293945,3.223419189,3.520965576
22.27027027,0.092529297,-0.160644531,0.908447266,-1.243591309,0.152587891,-1.842498779
22.2972973,-0.076171875,0.087646484,1.222167969,-0.076293945,-1.14440918,2.372741699
22.32432432,0.031494141,-0.345947266,0.858642578,2.666473389,-2.536773682,0.839233398
22.35135135,-0.008300781,-0.299316406,0.787597656,3.452301025,-0.232696533,1.605987549
22.37837838,-0.103027344,0.009033203,0.900634766,0.709533691,-3.402709961,1.991271973
22.40540541,0.007080078,-0.121582031,0.955322266,2.27355957,-2.540588379,0.247955322
22.43243243,-0.253662109,0.039306641,1.041992188,-1.640319824,-4.07409668,-3.757476807
22.45945946,0.088378906,0.067871094,1.084228516,-1.644134521,-3.303527832,4.154205322
22.48648649,0.042236328,0.234375,0.79296875,0.316619873,2.456665039,5.054473877
22.51351351,0.29296875,-0.197998047,0.967285156,3.829956055,-3.307342529,2.372741699
22.54054054,0.102539063,-0.254394531,0.638183594,-0.263214111,-4.459381104,2.758026123
22.56756757,0.107666016,-0.302734375,1.002685547,2.666473389,0.152587891,8.888244629
22.59459459,0.271972656,-0.205810547,0.611328125,4.627227783,-3.688812256,6.969451904
22.62162162,-0.089599609,-0.022949219,1.481445313,-3.2081604,2.346038818,-0.308990479
22.64864865,0.041015625,-0.346923828,0.724121094,6.191253662,2.838134766,1.323699951
22.67567568,0.256103516,0.383789063,1.341308594,-0.465393066,-4.459381104,-1.075744629
22.7027027,0.195068359,-0.413574219,1.178955078,1.491546631,-5.992889404,2.372741699
22.72972973,-0.063232422,0.238525391,1.321777344,5.802154541,-5.226135254,-0.061035156
22.75675676,0.255371094,-0.301757813,0.5625,0.316619873,1.689910889,4.192352295
22.78378378,0.065673828,0.182861328,1.313476563,-3.993988037,-4.84085083,1.991271973
22.81081081,0.11328125,-0.093261719,1.711425781,1.678466797,-14.44625854,2.372741699
22.83783784,0.229492188,-0.357177734,0.704589844,5.409240723,-3.688812256,4.287719727
22.86486486,-0.090332031,0.031982422,1.265136719,3.059387207,1.686096191,12.71820068
22.89189189,0.052490234,-0.370361328,1.096679688,0.713348389,-9.0675354,-7.972717285
22.91891892,0.285644531,-0.124267578,0.836669922,-5.165100098,-2.250671387,4.67300415
22.94594595,0.19921875,0.464111328,1.125244141,-6.732940674,-3.261566162,-6.053924561
22.97297297,0.338867188,-0.038330078,0.930419922,1.884460449,-4.455566406,8.655548096
23,0.175048828,0.047851563,1.382080078,2.666473389,4.379272461,0.076293945
23.02702703,0.203369141,0.033447266,1.134033203,0.709533691,-10.6048584,-0.308990479
23.05405405,0.237304688,0.379394531,0.898193359,-5.165100098,2.838134766,1.396179199
23.08108108,0.040039063,0.228271484,1.048339844,2.666473389,-1.003265381,7.736206055
23.10810811,-0.090087891,-0.595703125,0.990478516,-2.426147461,-14.82772827,-7.205963135
23.13513514,0.098632813,-0.89453125,0.832519531,7.545471191,-2.918243408,-2.223968506
23.16216216,-0.161865234,0.687255859,1.229003906,-0.076293945,-0.61416626,-2.223968506
23.18918919,-0.201171875,-0.217041016,1.381347656,-1.251220703,-0.232696533,-2.990722656
23.21621622,0.075927734,-0.036132813,0.546875,6.015777588,-0.617980957,3.13949585
23.24324324,0.2265625,0.227783203,0.516357422,-12.21847534,0.949859619,5.439758301
23.27027027,0.148193359,-0.431152344,0.9609375,1.098632813,-6.378173828,-6.820678711
23.2972973,-0.220458984,0.684570313,0.906494141,-3.601074219,1.304626465,-5.672454834
23.32432432,0.362060547,0.437988281,1.007568359,-4.776000977,0.152587891,-6.229400635
23.35135135,-0.169433594,-0.408203125,1.685302734,-7.125854492,-14.44625854,-2.223968506
23.37837838,0.091552734,0.136474609,1.234619141,1.884460449,-1.770019531,-2.60925293
23.40540541,0.155029297,0.267822266,1.073242188,5.016326904,-9.0675354,0.667572021
23.43243243,-0.450927734,-0.073486328,0.932373047,8.152008057,-9.063720703,3.13949585
23.45945946,0.123779297,0.547851563,0.805175781,8.541107178,-12.90512085,-0.690460205
23.48648649,0.190673828,0.03125,1.103271484,-10.25772095,-6.378173828,0.457763672
23.51351351,-0.506103516,0.41796875,0.698486328,14.18685913,-8.30078125,-11.03591919
23.54054054,-0.340576172,0.162109375,1.748779297,-3.99017334,-9.593963623,-8.354187012
23.56756757,0.321777344,0.089111328,0.936035156,1.491546631,-1.003265381,-11.03591919
23.59459459,0.404296875,0.830078125,1.450683594,-4.776000977,3.99017334,-1.457214355
23.62162162,-0.248779297,-0.253662109,0.931152344,-5.558013916,-11.37161255,-5.672454834
23.64864865,0.119873047,0.033935547,1.018798828,-3.601074219,2.838134766,-4.634857178
23.67567568,0.053466797,-0.127441406,0.637207031,1.884460449,-5.226135254,-10.26916504
23.7027027,0.111083984,-0.340332031,0.871337891,2.277374268,-17.51708984,-7.972717285
23.72972973,0.609130859,-0.003662109,1.184082031,1.491546631,-12.90893555,7.122039795
23.75675676,-0.0625,-0.907958984,1.400634766,16.76940918,0.537872314,-4.905700684
23.78378378,-0.293945313,0.029785156,0.958740234,-2.819061279,-4.07409668,-12.56942749
23.81081081,0.994873047,-0.757324219,1.340820313,11.08551025,-0.232696533,-1.075744629
23.83783784,-0.052001953,0.550292969,1.151367188,15.98739624,-7.915496826,-14.10293579
23.86486486,0.025390625,-0.504394531,1.692382813,6.191253662,-2.155303955,-5.290985107
23.89189189,0.523925781,1.151367188,1.147460938,-0.465393066,14.27459717,-16.78085327
23.91891892,-0.336425781,-0.097900391,1.371337891,3.841400146,-7.595062256,2.758026123
23.94594595,-0.616699219,-1.787841797,0.503417969,24.60479736,-19.54650879,-20.61462402
23.97297297,0.552246094,-0.287841797,0.260986328,-0.076293945,13.21029663,-19.22225952
24,-0.016113281,0.081787109,1.357910156,-16.13616943,22.42660522,-22.55249023
24.02702703,0.08203125,0.63671875,0.04296875,-5.558013916,2.456665039,-8.739471436
24.05405405,-0.132568359,-0.48046875,0.876220703,3.841400146,-12.52365112,-14.10293579
24.08108108,0.278808594,-0.279541016,0.427246094,-6.732940674,0.534057617,-11.03591919
24.10810811,0.226074219,0.600830078,1.197998047,-6.729125977,7.446289063,-4.905700684
24.13513514,0.103027344,-0.213378906,0.266845703,14.38903809,-2.155303955,-9.887695313
24.16216216,0.224853516,-0.010986328,1.047851563,-2.044677734,13.97705078,-12.18414307
24.18918919,0.001220703,0.193359375,1.311035156,-1.644134521,4.379272461,-0.308990479
24.21621622,0.305664063,0.526855469,0.709472656,-11.4364624,6.683349609,-2.605438232
24.24324324,-0.552978516,-0.611328125,1.026367188,-7.518768311,-4.566192627,-4.52041626
24.27027027,0.103027344,0.0546875,1.093017578,-13.78631592,6.744384766,-3.372192383
24.2972973,-0.014648438,-0.160400391,1.078125,-3.601074219,-3.688812256,-7.205963135
24.32432432,0.43359375,0.392822266,1.112304688,-21.22879028,-4.84085083,-13.33618164
24.35135135,-0.286132813,-0.383300781,0.692382813,-9.082794189,-4.84085083,6.240844727
24.37837838,0.133544922,-0.670410156,1.058349609,-6.732940674,-6.763458252,-0.308990479
24.40540541,-0.022705078,-0.068359375,1.549316406,-11.21520996,-4.84085083,-6.053924561
24.43243243,0.568359375,-0.517578125,0.776611328,-3.993988037,-0.61416626,0.843048096
24.45945946,-0.162841797,-0.383544922,0.839355469,0.316619873,-10.81085205,-3.372192383
24.48648649,0.064941406,-0.282226563,1.419921875,-2.815246582,-11.75689697,-7.205963135
24.51351351,0.298339844,-0.200195313,1.46484375,3.841400146,-1.766204834,-6.820678711
24.54054054,0.283447266,-0.071533203,0.958007813,3.448486328,4.619598389,-1.838684082
24.56756757,0.07421875,0.249755859,1.263427734,6.58416748,3.227233887,-9.922027588
24.59459459,0.087890625,-0.209228516,1.382324219,-3.993988037,10.13946533,-5.28717041
24.62162162,0.202636719,-0.456298828,1.008544922,8.544921875,4.760742188,-13.33618164
24.64864865,0.178466797,-0.168701172,0.968261719,14.02664185,-6.759643555,-10.26916504
24.67567568,0.035644531,0.167480469,1.305908203,5.016326904,0.152587891,0.076293945
24.7027027,0.327148438,-0.075927734,0.856689453,9.326934814,0.152587891,-11.80267334
24.72972973,0.731689453,0.188476563,0.746337891,9.326934814,0.152587891,0.843048096
24.75675676,0.26953125,-0.029296875,0.600830078,3.032684326,20.12634277,-8.735656738
24.78378378,0.329833984,0.015625,1.101806641,1.293182373,7.835388184,-2.990722656
24.81081081,0.518554688,0.221191406,0.720703125,5.016326904,13.21029663,6.206512451
24.83783784,0.506835938,0.8046875,1.521728516,-0.465393066,5.531311035,-6.820678711
24.86486486,0.356445313,-0.101318359,1.018554688,5.016326904,-3.688812256,-12.44735718
24.89189189,-0.240234375,0.587646484,0.858398438,4.234313965,-14.44625854,-1.197814941
24.91891892,0.020507813,-0.008056641,1.314453125,1.098632813,6.298065186,14.63317871
24.94594595,0.230224609,-0.510986328,1.038574219,7.36618042,12.05825806,14.25170898
24.97297297,0.121582031,0.197509766,0.940673828,2.071380615,-9.063720703,13.87023926
25,-0.4296875,0.134521484,1.040283203,-3.993988037,-7.911682129,-6.439208984
25.02702703,0.040771484,-0.338378906,1.46875,-8.30078125,2.071380615,-4.524230957
25.05405405,-0.437011719,0.930419922,1.542236328,3.623962402,-16.75033569,5.821228027
25.08108108,0.059814453,-0.202148438,0.769775391,3.059387207,-13.78631592,13.48495483
25.10810811,-0.083984375,-0.075439453,1.691894531,-2.819061279,10.13946533,16.93344116
25.13513514,-0.543212891,0.096923828,1.702880859,-2.033233643,6.298065186,16.55197144
25.16216216,0.293701172,-0.399414063,0.470214844,2.666473389,-9.754180908,-6.053924561
25.18918919,0.208984375,-0.221923828,0.610595703,-0.076293945,-0.232696533,-2.223968506
25.21621622,0.081298828,0.144287109,1.543212891,-0.076293945,-8.296966553,13.10348511
25.24324324,0.006103516,0.1640625,1.048583984,4.234313965,-2.922058105,5.970001221
25.27027027,-0.058837891,0.043457031,1.375244141,-3.601074219,-8.682250977,-10.26916504
25.2972973,0.196533203,-0.097900391,1.157226563,3.452301025,-3.688812256,0.076293945
25.32432432,0.043945313,-0.609375,0.943847656,13.43154907,-0.617980957,9.269714355
25.35135135,-0.056640625,0.127929688,0.686279297,-2.021789551,-5.611419678,-16.78466797
25.37837838,0.250732422,0.050292969,0.951904297,2.277374268,-1.289367676,10.41793823
25.40540541,-0.270263672,-0.423583984,1.353759766,15.98358154,-15.59448242,9.654998779
25.43243243,0.501708984,0.26953125,0.774169922,2.666473389,-0.713348389,-12.18414307
25.45945946,-0.148925781,0.155761719,0.815185547,12.85171509,-11.75308228,0.843048096
25.48648649,0.434814453,-0.071777344,0.94140625,4.234313965,-10.98632813,-4.981994629
25.51351351,0.134277344,0.664550781,0.709472656,-12.61138916,6.298065186,-4.524230957
25.54054054,0.154296875,-0.775146484,0.953613281,16.76177979,-3.303527832,12.71820068
25.56756757,-0.176513672,-0.257568359,1.329833984,-11.82556152,-8.296966553,-0.690460205
25.59459459,-0.029052734,0.334228516,0.886230469,2.063751221,-16.36505127,1.224517822
25.62162162,1.063232422,0.325683594,0.733398438,-21.6178894,10.47515869,8.888244629
25.64864865,-0.485839844,0.307617188,0.4296875,-10.65063477,9.754180908,23.83041382
25.67567568,0.129394531,0.30859375,0.594726563,-12.61138916,-4.459381104,11.18469238
25.7027027,-0.098144531,-0.084472656,1.033203125,-16.52526855,-2.506256104,-15.63262939
25.72972973,-0.091552734,-0.177490234,0.811523438,-14.56832886,2.071380615,-16.97158813
25.75675676,-0.258544922,-0.208007813,1.137695313,-22.01080322,-13.29421997,2.84576416
25.78378378,0.735351563,-0.774414063,0.792480469,-5.950927734,0.152587891,9.651184082
25.81081081,0.23828125,-0.014648438,0.948486328,-18.09310913,-4.84085083,-7.587432861
25.83783784,0.004882813,-0.949462891,1.389892578,-8.693695068,-5.60760498,8.121490479
25.86486486,0.600830078,-0.344970703,0.824951172,-4.776000977,5.146026611,3.13949585
25.89189189,0.199707031,-0.701416016,1.484375,-11.04354858,-0.232696533,-9.887695313
25.91891892,0.395751953,-0.060302734,1.393798828,-2.635955811,3.99017334,1.605987549
25.94594595,0.627441406,-0.420654297,0.73046875,-2.426147461,2.841949463,-2.605438232
25.97297297,-0.038818359,-0.34765625,1.064453125,4.234313965,5.573272705,6.206512451
26,0.277832031,-0.259033203,0.430419922,10.89477539,0.919342041,7.736206055
26.02702703,0.177001953,0.002441406,1.380859375,10.50186157,5.146026611,7.740020752
26.05405405,0.032714844,0.117919922,0.711425781,8.934020996,10.52474976,4.67300415
26.08108108,0.453369141,-0.235351563,0.625976563,-7.911682129,23.96774292,-5.264282227
26.10810811,-0.010742188,0.16796875,0.776855469,5.790710449,14.74761963,7.354736328
26.13513514,0.26171875,0.487792969,1.133300781,4.627227783,6.679534912,-8.354187012
26.16216216,0.15234375,-0.357666016,0.979980469,6.191253662,14.36233521,10.41793823
26.18918919,-0.160644531,-0.181152344,0.747070313,10.50186157,18.58901978,8.121490479
26.21621622,-0.470703125,0.081298828,1.326904297,-0.465393066,13.09967041,12.33673096
26.24324324,-0.715820313,-0.286376953,0.848876953,3.837585449,7.831573486,9.269714355
26.27027027,-0.121826172,0.267822266,0.906738281,17.55142212,2.456665039,11.95144653
26.2972973,-0.248046875,0.352539063,0.744628906,2.277374268,-2.922058105,18.08166504
26.32432432,-0.439697266,0.488037109,1.112792969,-14.56832886,20.73669434,-6.820678711
26.35135135,-0.177001953,0.364746094,0.980712891,-14.17922974,0.152587891,0.865936279
26.37837838,-0.404785156,-0.363769531,0.937255859,-8.30078125,-0.999450684,3.524780273
26.40540541,-0.397705078,-0.278076172,0.971679688,-15.35415649,-5.60760498,-6.053924561
26.43243243,-0.251464844,0.025878906,0.880371094,-17.31109619,5.912780762,14.36233521
26.45945946,-0.129882813,-0.348388672,1.140136719,-10.25772095,-4.07409668,4.67300415
26.48648649,-0.170166016,-0.507324219,0.800537109,-5.558013916,-16.36505127,7.740020752
26.51351351,0.320068359,-0.156494141,0.749267578,-9.674072266,-8.30078125,1.605987549
26.54054054,0.209716797,-0.657226563,1.057128906,-20.83587646,-3.307342529,1.605987549
26.56756757,0.288574219,-0.216308594,1.157714844,-3.601074219,-9.834289551,14.25170898
26.59459459,0.025634766,-0.389648438,0.910400391,-7.133483887,-17.89855957,-12.95089722
26.62162162,0.392089844,0.227539063,1.042236328,-2.819061279,-4.974365234,8.502960205
26.64864865,-0.225097656,1.418945313,0.942382813,-5.168914795,13.98086548,3.13949585
26.67567568,-1.26171875,0.424804688,1.241455078,7.759094238,-30.57479858,5.821228027
26.7027027,0.481689453,-0.828125,1.379150391,1.884460449,-7.991790771,-2.223968506
26.72972973,0.012695313,-0.146240234,1.109375,10.10894775,-20.59173584,0.9765625
26.75675676,0.186279297,0.083984375,0.961181641,-0.076293945,-9.452819824,-1.419067383
26.78378378,0.222167969,-0.33984375,1.240966797,15.98739624,1.686096191,-3.757476807
26.81081081,0.403076172,0.446777344,0.554443359,10.10894775,-9.0675354,10.80322266
26.83783784,0.403564453,0.98046875,1.783447266,-4.75692749,-12.90893555,-4.138946533
26.86486486,0.116210938,-1.086669922,0.228515625,12.06970215,-7.148742676,10.03646851
26.89189189,0.707519531,-0.781738281,0.619140625,1.884460449,2.456665039,-8.354187012
26.91891892,0.077148438,-0.018554688,1.437255859,-0.858306885,1.655578613,2.372741699
26.94594595,0.276123047,-0.184326172,0.698974609,6.58416748,1.304626465,10.03646851
26.97297297,-0.286621094,0.220214844,1.020507813,13.63372803,8.602142334,1.609802246
27,-0.174316406,-0.643310547,0.846923828,-1.251220703,-13.13400269,-0.308990479
27.02702703,-0.4921875,0.178955078,0.898681641,-6.732940674,3.608703613,15.39993286
27.05405405,-0.208007813,-0.626220703,0.950439453,-0.858306885,25.88653564,1.224517822
27.08108108,-0.265869141,0.399902344,0.787109375,-4.383087158,1.689910889,-0.862121582
27.10810811,0.672851563,0.17578125,0.805908203,-23.5786438,9.368896484,-2.60925293
27.13513514,-0.365722656,0.005371094,0.776611328,-23.18572998,10.13565063,-6.439208984
27.16216216,0.043457031,-0.1953125,0.624511719,-7.907867432,0.919342041,-4.905700684
27.18918919,-0.323242188,-0.150878906,0.913085938,-10.26153564,-4.455566406,12.33673096
27.21621622,0.005615234,-0.097412109,1.458984375,-21.78955078,-16.36505127,-0.690460205
27.24324324,-0.037597656,-0.476074219,1.368408203,-13.00048828,-17.47131348,8.121490479
27.27027027,-0.276367188,-0.396240234,1.742919922,-14.17922974,-24.42932129,-11.80267334
27.2972973,-0.37109375,0.870849609,2.015136719,-1.251220703,-13.29421997,4.508972168
27.32432432,0.385009766,-0.409423828,1.010986328,-5.558013916,-3.303527832,-6.439208984
27.35135135,-0.018066406,0.270263672,1.029541016,10.89096069,-3.303527832,11.32202148
27.37837838,-0.012207031,-0.727783203,1.204101563,5.802154541,-21.35848999,7.736206055
27.40540541,0.656982422,1.01171875,0.557373047,6.977081299,8.21685791,-0.690460205
27.43243243,0.206542969,-0.365966797,0.759521484,8.937835693,5.912780762,0.457763672
27.45945946,0.546630859,-0.032714844,0.143310547,-12.21847534,17.82226563,6.206512451
27.48648649,0.004150391,0.195800781,1.05078125,6.980895996,11.67678833,11.18469238
27.51351351,-0.134033203,0.24609375,0.426025391,3.841400146,-2.170562744,0.843048096
27.54054054,-0.095458984,0.088867188,0.863037109,14.41955566,-21.73995972,6.587982178
27.56756757,-0.256347656,0.339599609,1.402832031,12.85171509,-5.992889404,10.80322266
27.59459459,0.894775391,-0.573730469,0.358154297,11.67678833,12.40921021,-0.308990479
27.62162162,0.881591797,0.883056641,0.578125,-8.693695068,45.4750061,-0.518798828
27.64864865,0.680419922,-0.380859375,1.506591797,2.666473389,7.064819336,-5.672454834
27.67567568,0.195556641,-0.495361328,1.041259766,8.544921875,2.838134766,0.839233398
27.7027027,0.163574219,0.299072266,2.348388672,-21.6217041,15.8996582,1.991271973
27.72972973,-0.352294922,-0.117675781,1.388183594,17.55142212,12.05825806,-1.075744629
27.75675676,0.513427734,-0.684326172,1.315673828,-12.81356812,28.19061279,1.991271973
27.78378378,0.400390625,-0.133300781,1.346191406,6.58416748,5.596160889,3.524780273
27.81081081,-0.717773438,-0.453613281,1.541259766,5.016326904,-9.834289551,3.524780273
27.83783784,-0.824707031,-0.021240234,1.387939453,17.55142212,-23.66256714,5.439758301
27.86486486,0.262695313,-2.097412109,0.997314453,19.1192627,-16.34979248,13.48495483
27.89189189,-0.041259766,1.566650391,1.967041016,19.90127563,0.152587891,12.19940186
27.91891892,0.191650391,-1.711914063,0.638671875,20.68710327,-8.296966553,0.843048096
27.94594595,0.889160156,0.901611328,1.795654297,21.07620239,7.835388184,7.740020752
27.97297297,0.511474609,-0.694335938,-0.179199219,33.61129761,15.13290405,2.681732178
28,0.762207031,-0.634765625,1.500732422,17.55142212,23.96774292,13.10348511
28.02702703,0.405273438,0.735839844,0.522216797,24.99389648,4.760742188,2.758026123
28.05405405,-0.490966797,0.483886719,0.608398438,25.18081665,19.74487305,-3.372192383
28.08108108,0.081298828,0.770019531,1.494873047,19.90127563,10.13946533,-14.09912109
28.10810811,0.502441406,1.282226563,0.199951172,9.326934814,10.52474976,6.206512451
28.13513514,0.983154297,1.237548828,0.586425781,-11.43264771,-3.032684326,-7.205963135
28.16216216,0.260498047,-0.580322266,0.178222656,3.059387207,2.841949463,13.48495483
28.18918919,0.627929688,-0.161376953,0.078613281,2.666473389,-10.98632813,-1.384735107
28.21621622,-0.378417969,-0.312255859,0.363525391,-16.91818237,-14.06097412,-4.905700684
28.24324324,0.077148438,0.545654297,0.6171875,-20.44296265,-10.6048584,-14.35089111
28.27027027,0.472167969,0.895751953,1.679199219,-40.42434692,-11.37161255,-5.672454834
28.2972973,-0.038818359,-0.848876953,0.939697266,-32.98187256,-9.063720703,-9.887695313
28.32432432,-0.610839844,-0.552001953,1.395019531,-28.85818481,-16.75033569,0.457763672
28.35135135,-0.122314453,0.022949219,1.063232422,-34.93881226,-32.88269043,-21.38137817
28.37837838,1.242431641,1.343994141,2.321289063,-37.28866577,-43.63250732,4.67300415
28.40540541,0.169921875,0.196289063,0.086914063,-26.91268921,-22.51052856,-20.99609375
28.43243243,1.481689453,-0.241210938,0.881347656,-23.97155762,-1.415252686,-31.72683716
28.45945946,-0.365478516,0.790283203,2.598876953,-43.9491272,-7.911682129,0.457763672
28.48648649,-0.028564453,-0.411132813,1.036621094,-11.4364624,-13.6756897,3.90625
28.51351351,0.251708984,-0.363769531,1.740966797,-5.168914795,-2.471923828,-1.075744629
28.54054054,0.508544922,-0.100585938,1.834472656,4.623413086,-5.992889404,4.215240479
28.56756757,0.828857422,-0.855712891,1.214355469,14.80865479,-9.449005127,-20.34378052
28.59459459,0.543212891,-0.264160156,1.275634766,11.28387451,-4.07409668,-4.52041626
28.62162162,0.247070313,-0.072998047,1.230224609,-3.601074219,0.537872314,-14.86587524
28.64864865,1.209960938,-0.332275391,0.192626953,13.23699951,-1.003265381,4.287719727
28.67567568,0.104736328,-0.704101563,2.298583984,-4.776000977,-8.682250977,-1.075744629
28.7027027,0.718505859,-0.455566406,1.05859375,15.98739624,5.527496338,5.054473877
28.72972973,0.443115234,-0.492675781,0.615966797,18.699646,18.58901978,-14.86968994
28.75675676,-0.455810547,-0.235839844,1.116455078,20.29418945,0.40435791,3.524780273
28.78378378,-0.445800781,-0.132324219,0.874023438,30.08651733,3.993988037,9.654998779
28.81081081,0.070800781,0.122070313,0.982177734,28.12957764,8.987426758,-4.905700684
28.83783784,0.142089844,0.092773438,1.125,30.87234497,18.89419556,14.63317871
28.86486486,-1.142089844,-1.638671875,-0.343261719,30.87234497,25.88653564,-4.749298096
28.89189189,-0.020263672,1.737060547,1.557128906,6.977081299,11.28768921,-7.587432861
28.91891892,0.361816406,0.744873047,1.871337891,9.716033936,-8.296966553,13.87023926
28.94594595,0.25390625,-0.488037109,0.1953125,17.1585083,5.531311035,-10.34545898
28.97297297,0.537597656,0.37109375,1.207763672,-0.858306885,22.81570435,7.740020752
29,-0.193359375,0.119384766,1.245849609,2.666473389,20.12634277,-11.03591919
29.02702703,0.042480469,-0.1796875,0.797607422,4.234313965,1.304626465,2.372741699
29.05405405,0.423583984,1.577880859,1.364501953,-18.66912842,-9.063720703,6.206512451
29.08108108,-0.497314453,-1.342773438,0.669189453,-11.02828979,-15.209198,-2.990722656
29.10810811,-0.131103516,-0.395996094,0.799560547,-3.2081604,-14.46151733,-9.120941162
29.13513514,0.058837891,0.440673828,1.256347656,-8.693695068,-17.162323,-4.52041626
29.16216216,0.154296875,0.21875,0.642089844,-5.165100098,-6.763458252,-5.004882813
29.18918919,0.244628906,0.585693359,0.376464844,-18.87893677,-2.155303955,5.054473877
29.21621622,0.271728516,-0.110839844,0.200195313,-13.00048828,-27.11868286,-8.354187012
29.24324324,0.218505859,-0.038574219,1.440185547,-16.13616943,-19.43969727,8.293151855
29.27027027,-0.271484375,-0.454345703,1.250244141,-16.13616943,-10.21957397,3.524780273
29.2972973,0.420410156,0.283447266,0.923339844,-7.911682129,-19.82116699,2.758026123
29.32432432,0.296630859,0.585205078,1.176269531,-35.7170105,-7.911682129,-11.03591919
29.35135135,0.092773438,-0.10546875,1.865234375,-13.78631592,-10.21957397,10.42175293
29.37837838,-0.324707031,-0.789794922,0.733398438,-27.49633789,-13.29421997,8.502960205
29.40540541,-0.379150391,0.145751953,1.657470703,-23.96392822,-2.155303955,-7.972717285
29.43243243,0.555175781,-2.559326172,3.489990234,-43.55621338,-15.59829712,-17.1661377
29.45945946,-0.079589844,0.893554688,2.379638672,-22.01080322,-20.29418945,26.13067627
29.48648649,0.403320313,-1.836669922,1.885253906,-20.05386353,8.731842041,-13.33618164
29.51351351,0.857177734,-2.286865234,0.8046875,-8.693695068,10.90621948,2.311706543
29.54054054,0.658691406,-0.772949219,0.434082031,2.666473389,-51.70059204,-5.905151367
29.56756757,0.339355469,0.918212891,1.568847656,-15.57159424,43.55239868,14.25170898
29.59459459,0.931884766,-0.467773438,0.608398438,12.45880127,-0.61416626,-21.7628479
29.62162162,-0.224365234,0.179443359,2.415527344,2.666473389,-1.766204834,7.354736328
29.64864865,0.494873047,-1.416259766,0.578613281,24.21188354,20.12252808,-11.42120361
29.67567568,-0.015625,-0.306884766,1.100097656,32.6385498,5.527496338,18.46694946
29.7027027,0.081054688,-0.472167969,1.079101563,37.50228882,20.89309692,23.06365967
29.72972973,0.004638672,0.388183594,0.591796875,12.45880127,-8.30078125,-12.18414307
29.75675676,0.388671875,0.30078125,2.375244141,10.89096069,11.18087769,5.439758301
29.78378378,-0.089355469,0.434326172,-0.090820313,32.43637085,25.89797974,7.354736328
29.81081081,0.674804688,0.197021484,0.688964844,28.91159058,29.7164917,7.354736328
29.83783784,0.130859375,0.912109375,0.770507813,25.77972412,32.41729736,4.291534424
29.86486486,-0.484863281,0.363525391,0.944824219,42.22869873,-17.51708984,-8.354187012
29.89189189,0.048095703,0.222900391,0.457763672,38.70391846,-16.36505127,1.396179199
29.91891892,-0.226318359,-0.988037109,1.13671875,33.22219849,34.71755981,14.63317871
29.94594595,1.044921875,1.389892578,0.802490234,28.91159058,35.10665894,-14.86587524
29.97297297,0.091552734,0.642333984,0.514404297,-0.076293945,16.28494263,-10.65063477
30,0.577148438,0.779296875,1.450683594,5.802154541,7.835388184,6.587982178
30.02702703,0.141357422,0.634033203,0.609619141,-21.43859863,-0.61416626,-6.053924561
30.05405405,-0.368652344,0.413330078,0.655029297,-30.60913086,15.13290405,6.206512451
30.08108108,-0.385986328,-0.703857422,0.629882813,-29.06417847,-8.728027344,-3.757476807
30.10810811,0.095458984,-0.578125,0.354980469,-30.62820435,8.361816406,18.08166504
30.13513514,-1.336914063,-1.204833984,1.324707031,-38.07067871,-47.85919189,-25.21133423
30.16216216,-0.663085938,-1.201904297,1.648681641,-33.7638855,3.608703613,29.19387817
30.18918919,0.124511719,-0.966552734,1.890380859,-25.5355835,30.11322021,-28.03421021
30.21621622,0.447753906,-0.437255859,0.922119141,-41.59927368,-9.449005127,-9.502410889
30.24324324,0.061035156,-1.225097656,2.418457031,-56.09130859,-2.151489258,0.076293945
30.27027027,0.161621094,-1.851074219,2.102783203,-23.97537231,-12.1383667,-6.439208984
30.2972973,0.259521484,0.832275391,-0.054931641,1.491546631,5.912780762,20.38192749
30.32432432,-0.258056641,-0.612792969,1.275878906,5.409240723,4.375457764,-35.17532349
30.35135135,1.264160156,-0.892333984,1.777099609,-11.65390015,-12.1383667,22.29690552
30.37837838,0.445556641,-0.139892578,-0.049804688,32.04727173,-17.19665527,15.39993286
30.40540541,0.051025391,1.40234375,2.697021484,1.098632813,2.071380615,29.19387817
30.43243243,-0.812255859,0.417480469,-0.994140625,19.1192627,13.21029663,-27.6222229
30.45945946,2.748046875,-0.676513672,0.661132813,28.51867676,-21.73995972,-11.41738892
30.48648649,1.748535156,-0.200195313,0.312255859,29.69360352,39.71481323,20.76339722
30.51351351,-0.572753906,2.409667969,1.008300781,45.7572937,11.28768921,-10.65444946
30.54054054,0.757324219,-1.460693359,-1.081298828,45.36437988,1.304626465,13.09967041
30.56756757,-0.645019531,0.064208984,1.499511719,17.1585083,24.73449707,34.94262695
30.59459459,0.267089844,1.189941406,-0.788574219,41.83959961,21.44622803,-22.52960205
30.62162162,-0.271484375,0.749755859,0.110351563,-20.44677734,25.88653564,8.888244629
30.64864865,-0.178955078,0.802734375,1.354003906,9.719848633,-4.570007324,7.354736328
30.67567568,0.340087891,1.805664063,1.79296875,-25.53939819,21.0723877,3.524780273
30.7027027,-0.441650391,-0.882568359,0.716064453,-7.125854492,0.923156738,0.457763672
30.72972973,0.461914063,0.997802734,2.134765625,-31.8031311,-0.999450684,-36.70501709
30.75675676,-0.718994141,-2.626953125,1.419433594,3.841400146,-20.97320557,27.83584595
30.78378378,-0.575195313,-0.824462891,2.005859375,-25.14648438,-4.07409668,-22.14813232
30.81081081,0.039550781,0.185302734,1.678466797,-29.84619141,5.527496338,2.758026123
30.83783784,0.3125,-2.900634766,1.301025391,-6.530761719,-23.66256714,39.15405273
30.86486486,0.795166016,-0.135253906,1.130371094,-44.71969604,-11.75689697,-14.86968994
30.89189189,0.807617188,-1.633789063,1.68359375,-50.60577393,15.51437378,-22.14813232
30.91891892,1.876708984,-1.149169922,0.456054688,-8.602142334,-23.66256714,12.71820068
30.94594595,-0.135986328,0.193847656,-0.143554688,-10.26153564,27.44293213,1.991271973
30.97297297,0.174804688,-0.119384766,1.579589844,2.277374268,-3.307342529,-18.1427002
31,0.5703125,-0.069335938,0.909667969,9.719848633,-14.06097412,6.206512451
31.02702703,0.359375,0.052978516,0.375488281,22.25112915,-0.61416626,14.63317871
31.05405405,0.497070313,-0.000732422,0.606445313,5.802154541,-7.530212402,-22.92633057
31.08108108,0.512451172,-1.033447266,1.994384766,21.07620239,-50.54855347,-0.308990479
31.10810811,1.166259766,-0.361328125,-0.767333984,38.70391846,-61.30218506,-4.52041626
31.13513514,0.449951172,1.097900391,0.097412109,1.125335693,-19.05059814,-11.80267334
31.16216216,0.478759766,0.604248047,-0.516113281,25.77972412,32.41729736,2.372741699
31.18918919,-0.392089844,-1.13671875,1.883300781,32.04727173,-32.11212158,-0.690460205
31.21621622,0.654785156,-0.749023438,0.994140625,4.623413086,6.618499756,4.291534424
31.24324324,0.210693359,0.291992188,0.383056641,14.41955566,-6.759643555,5.054473877
31.27027027,0.598632813,-0.0390625,0.750244141,6.58416748,2.632141113,24.21188354
31.2972973,0.180419922,-0.909667969,1.700439453,1.491546631,-13.6756897,-2.086639404
31.32432432,0.301025391,-0.604248047,1.299804688,-2.426147461,-9.834289551,-8.277893066
31.35135135,-0.136474609,-0.396484375,1.627685547,2.666473389,-9.834289551,10.41793823
31.37837838,0.234130859,-0.220214844,1.806884766,6.58416748,-12.52365112,-12.95089722
31.40540541,0.141113281,-1.221435547,1.033447266,13.63372803,-9.449005127,14.25170898
31.43243243,-0.03515625,-0.704589844,1.3046875,5.409240723,-13.6756897,11.56997681
31.45945946,-0.088378906,-0.279052734,1.735107422,7.175445557,-21.74377441,-5.672454834
31.48648649,0.729492188,0.1484375,1.031494141,-12.61138916,-4.63104248,-23.2963562
31.51351351,-0.0703125,-0.186035156,1.589599609,-14.96124268,0.919342041,-3.757476807
31.54054054,0.242431641,0.291503906,1.377685547,8.152008057,-37.1055603,-2.990722656
31.56756757,0.715820313,-0.000732422,-0.343261719,-17.31109619,29.4303894,-0.690460205
31.59459459,0.387451172,0.766113281,0.357177734,1.884460449,-33.26416016,-19.42825317
31.62162162,0.129882813,-0.950683594,0.770996094,-2.815246582,9.754180908,13.09967041
31.64864865,-1.190673828,0.837646484,0.692871094,4.234313965,-4.07409668,-4.138946533
31.67567568,-0.29296875,-0.418212891,0.131347656,17.94433594,-34.41619873,3.795623779
31.7027027,0.769042969,1.208984375,-0.063720703,-18.48602295,2.071380615,-2.990722656
31.72972973,-0.212158203,-0.669189453,0.701416016,2.666473389,-12.1383667,-15.63262939
31.75675676,0.129882813,-0.508544922,0.525146484,0.713348389,-4.84085083,-7.968902588
31.78378378,-0.122558594,0.036376953,1.000976563,1.884460449,-6.759643555,8.121490479
31.81081081,0.193359375,0.377929688,0.640380859,0.709533691,2.841949463,1.991271973
31.83783784,0.302490234,-0.557128906,1.004882813,-3.387451172,-5.60760498,3.524780273
31.86486486,0.027587891,0.032226563,1.140380859,5.802154541,-5.992889404,5.054473877
31.89189189,0.5390625,-0.553222656,0.392822266,3.448486328,2.983093262,1.991271973
31.91891892,-1.125244141,-0.525634766,0.493896484,5.016326904,16.28494263,-2.666473389
31.94594595,0.067382813,1.299316406,1.426025391,10.50186157,-30.96008301,20.38192749
31.97297297,0.206054688,-0.451416016,1.032714844,10.89096069,13.98086548,3.772735596
32,0.277099609,-0.773681641,0.899658203,-5.168914795,5.531311035,-19.84786987
32.02702703,0.154785156,0.468261719,1.368896484,19.90127563,10.90621948,5.439758301
32.05405405,-0.201904297,-0.684326172,1.289550781,12.63046265,10.13946533,-0.308990479
32.08108108,0.076171875,-0.392822266,1.375244141,28.12957764,1.689910889,18.84841919
32.10810811,0.059082031,-0.175537109,1.193359375,12.06970215,13.98086548,-4.905700684
32.13513514,0.018798828,-0.641113281,1.369384766,8.560180664,12.8288269,12.33673096
32.16216216,-0.084716797,0.523925781,1.729248047,-0.465393066,4.760742188,-15.25115967
32.18918919,-0.117431641,-0.044677734,1.00390625,12.06970215,9.368896484,-7.972717285
32.21621622,-0.339111328,0.498535156,1.457275391,3.841400146,-9.899139404,-3.372192383
32.24324324,-0.331542969,-0.301025391,0.632324219,7.36618042,-14.05715942,-6.439208984
32.27027027,-0.053955078,0.579345703,1.6015625,2.666473389,-15.97976685,-0.690460205
32.2972973,0.076904297,-0.092041016,0.553955078,-0.076293945,10.52474976,-4.31060791
32.32432432,0.162109375,0.210449219,1.144042969,0.709533691,-4.455566406,1.991271973
32.35135135,-0.732910156,-1.017822266,0.713867188,19.51217651,-9.449005127,-11.80267334
32.37837838,0.677490234,1.4140625,0.704101563,1.10244751,-8.30078125,9.651184082
32.40540541,-0.08203125,-0.449951172,0.2265625,-1.640319824,-1.003265381,11.18469238
32.43243243,0.077392578,0.081054688,-0.097412109,-14.54162598,-10.6010437,9.654998779
32.45945946,0.326904297,-0.072021484,0.968261719,-18.09310913,18.9743042,-11.03591919
32.48648649,0.452636719,0.136230469,0.786132813,-9.475708008,-14.05715942,-8.354187012
32.51351351,-0.559326172,-0.000244141,1.001953125,-10.26153564,1.083374023,10.42175293
32.54054054,0.091308594,-0.28515625,0.895019531,-1.640319824,-9.0675354,9.307861328
32.56756757,0.469238281,0.463378906,1.028564453,-16.13616943,-2.922058105,-3.372192383
32.59459459,0.030517578,-0.866455078,0.720458984,-1.640319824,34.33609009,9.269714355
32.62162162,0.202636719,0.795166016,1.140625,-5.950927734,-2.155303955,-11.18469238
32.64864865,-0.072753906,0.909423828,1.307373047,3.059387207,-11.75308228,8.502960205
32.67567568,-0.027587891,-0.414794922,1.175537109,0.316619873,5.912780762,-18.31436157
32.7027027,0.265869141,-0.340576172,0.736083984,6.969451904,0.537872314,-15.63262939
32.72972973,-0.325683594,0.382324219,1.712890625,3.841400146,1.304626465,8.121490479
32.75675676,-0.020507813,-0.397460938,1.128417969,8.140563965,10.52474976,-1.075744629
32.78378378,-0.231201172,0.443359375,1.433105469,6.778717041,-3.688812256,-1.457214355
32.81081081,0.019775391,0.425537109,1.276367188,-3.601074219,1.274108887,-11.03591919
32.83783784,0.274414063,-0.673339844,0.930419922,3.841400146,8.21685791,2.658843994
32.86486486,0.150146484,0.081054688,1.179199219,-10.26153564,-8.296966553,4.67300415
32.89189189,0.240234375,-0.290283203,1.122558594,-5.168914795,8.220672607,0.038146973
32.91891892,-0.183837891,0.007080078,1.469482422,-11.04354858,-4.84085083,3.13949585
32.94594595,0.367919922,-0.397460938,1.212402344,-7.125854492,-4.455566406,0.457763672
32.97297297,0.313232422,-0.087646484,0.876953125,-10.25772095,6.679534912,-10.26916504
33,-0.341796875,0.33984375,1.274658203,-8.30078125,0.152587891,2.758026123
33.02702703,-0.025146484,-0.572021484,1.261962891,1.10244751,7.064819336,5.821228027
33.05405405,-0.079833984,0.029296875,1.048339844,-8.304595947,-6.763458252,-2.223968506
33.08108108,0.141845703,0.327148438,1.121582031,-7.518768311,-3.303527832,-2.605438232
33.10810811,-0.210693359,-0.309326172,1.022705078,-21.22879028,-10.6010437,0.076293945
33.13513514,0.144775391,-0.3125,0.883300781,-16.13616943,-4.455566406,6.587982178
33.16216216,0.412353516,-0.156005859,0.998779297,-29.84619141,18.58901978,-1.155853271
33.18918919,0.475097656,0.088623047,0.544677734,-13.78631592,2.071380615,16.62445068
33.21621622,-0.074707031,0.117675781,0.617431641,-20.05386353,1.689910889,1.609802246
33.24324324,-0.352050781,-0.477050781,1.467285156,-18.09310913,-14.05715942,-5.130767822
33.27027027,0.01171875,-0.295898438,1.401611328,-4.776000977,-9.449005127,0.843048096
33.2972973,0.163330078,-0.215820313,0.614746094,-8.693695068,-7.144927979,-7.587432861
33.32432432,0.036132813,-0.350341797,0.942626953,-2.426147461,-4.455566406,-3.757476807
33.35135135,0.013671875,0.168701172,1.016357422,-4.013061523,-3.688812256,-2.605438232
33.37837838,0.308105469,0.234130859,1.380126953,0.709533691,-10.42556763,0.076293945
33.40540541,0.567871094,-0.769775391,0.767333984,-0.465393066,-0.232696533,-4.905700684
33.43243243,0.283203125,-0.496582031,1.172363281,1.098632813,-8.682250977,-5.672454834
33.45945946,0.4296875,0.046142578,1.233886719,-2.426147461,-2.326965332,-0.690460205
33.48648649,0.081787109,-0.155273438,0.858154297,6.191253662,0.888824463,0.076293945
33.51351351,0.219238281,-0.077392578,1.448974609,-4.776000977,-7.144927979,-0.305175781
33.54054054,0.165771484,0.086914063,1.017333984,-2.426147461,23.96392822,8.888244629
33.56756757,-0.087646484,-0.330566406,0.844238281,-8.693695068,-11.75689697,-16.89529419
33.59459459,-0.061279297,-0.671875,0.580566406,-0.858306885,-0.999450684,-3.238677979
33.62162162,0.447753906,0.093017578,0.971191406,6.58416748,3.993988037,-4.905700684
33.64864865,0.215332031,-1.104003906,1.526855469,4.22668457,-1.384735107,-2.223968506
33.67567568,0.219238281,-0.145019531,1.139648438,6.977081299,-0.61416626,6.973266602
33.7027027,-0.045166016,-1.385742188,1.657226563,7.759094238,8.987426758,-8.354187012
33.72972973,0.83984375,-0.072021484,1.028808594,6.374359131,9.754180908,8.888244629
33.75675676,0.434326172,-0.502441406,1.046875,-3.601074219,3.227233887,-3.757476807
33.78378378,-0.003662109,-0.115966797,1.485595703,-13.00048828,8.21685791,4.043579102
33.81081081,0.255126953,-0.315917969,1.153808594,-6.732940674,-4.180908203,-5.672454834
33.83783784,0.481933594,-0.457519531,1.833984375,-8.693695068,7.835388184,8.888244629
33.86486486,-0.444824219,0.088867188,1.716308594,-2.426147461,8.21685791,9.136199951
33.89189189,0.621826172,0.452880859,0.639892578,-2.033233643,3.993988037,-3.372192383
33.91891892,0.682128906,0.131591797,1.359375,-0.465393066,-2.151489258,0.457763672
33.94594595,0.577392578,-0.539550781,0.853759766,3.852844238,15.51818848,4.67300415
33.97297297,-0.488769531,0.003173828,1.342529297,12.06970215,1.304626465,1.991271973
34,0.491210938,-0.323974609,0.255859375,19.51217651,-21.58355713,3.524780273
34.02702703,-0.073974609,0.296630859,0.049072266,0.099182129,3.993988037,-4.138946533
34.05405405,0.239257813,0.346435547,1.053222656,3.616333008,-4.07409668,10.80322266
34.08108108,-0.454345703,0.649169922,0.497070313,8.934020996,15.8996582,-10.26916504
34.10810811,1.403808594,-1.041259766,-0.162353516,7.759094238,13.59558105,-2.990722656
34.13513514,-0.204345703,1.937255859,1.337646484,-17.31109619,-5.477905273,3.143310547
34.16216216,-0.644287109,-1.300537109,0.563720703,30.87234497,-15.209198,-5.710601807
34.18918919,0.754882813,1.530273438,0.950927734,17.94433594,5.912780762,2.067565918
34.21621622,0.204589844,1.606689453,0.892822266,19.51217651,-6.759643555,24.45983887
34.24324324,-0.031494141,0.041259766,0.596679688,-11.04354858,8.602142334,-33.64181519
34.27027027,0.186767578,0.326904297,1.166992188,32.43637085,14.74761963,34.55734253
34.2972973,0.152832031,-0.151611328,0.565185547,5.016326904,-22.51052856,-52.79922485
34.32432432,0.537597656,-0.951904297,1.651855469,19.51217651,-8.296966553,-24.06311035
34.35135135,0.909423828,-0.348388672,1.155761719,16.57104492,1.304626465,24.9786377
34.37837838,-0.060058594,-0.534667969,2.008056641,16.96777344,3.608703613,-4.52041626
34.40540541,1.537109375,-1.115234375,0.852050781,14.41955566,-3.303527832,19.61517334
34.43243243,-0.652099609,-0.740966797,2.552978516,11.67678833,-4.84085083,10.80322266
34.45945946,0.167236328,0.012695313,0.909423828,24.99389648,9.864807129,-16.78085327
34.48648649,0.178466797,0.232177734,1.604248047,5.016326904,-7.144927979,-11.97433472
34.51351351,0.231445313,-0.958251953,1.340332031,21.86203003,-10.98632813,3.13949585
34.54054054,-0.221679688,-0.612792969,1.849853516,29.30450439,-18.66912842,11.95144653
34.56756757,0.166259766,-0.3203125,1.240234375,17.94433594,-9.063720703,13.10348511
34.59459459,0.133789063,0.548583984,1.351318359,6.58416748,3.993988037,6.587982178
34.62162162,0.265136719,1.329101563,0.810058594,9.716033936,-23.27728271,-11.03591919
34.64864865,-0.079833984,-1.547363281,0.978759766,11.66915894,-15.59448242,-8.354187012
34.67567568,1.011962891,1.093261719,0.663818359,30.85327148,0.152587891,7.354736328
34.7027027,0.003417969,0.727050781,1.182617188,5.802154541,8.987426758,-4.138946533
34.72972973,0.301269531,-0.413085938,0.859375,12.06970215,-5.226135254,4.810333252
34.75675676,0.7734375,-0.052490234,0.150878906,5.802154541,9.227752686,2.758026123
34.78378378,-0.253417969,0.379150391,1.094970703,-1.251220703,1.689910889,-2.990722656
34.81081081,-0.078125,-0.141357422,0.998535156,-2.426147461,-4.84085083,5.821228027
34.83783784,0.417236328,0.135742188,0.49609375,-11.82556152,-11.75308228,-4.806518555
34.86486486,0.155273438,-0.246826172,0.717529297,-0.858306885,-8.296966553,38.77258301
34.89189189,0.884765625,-0.889160156,1.501708984,-22.01080322,-54.00466919,-37.47177124
34.91891892,-0.274169922,-0.526123047,0.900878906,-18.09310913,0.152587891,11.18469238
34.94594595,-0.626220703,-0.499023438,1.357666016,1.293182373,-18.28384399,5.821228027
34.97297297,0.120117188,0.299804688,0.651123047,-15.3503418,-27.11868286,-1.842498779
35,-0.004638672,0.13671875,0.229980469,9.326934814,11.29150391,0.347137451
35.02702703,0.462890625,0.107421875,1.7265625,-6.732940674,-18.75305176,-15.63262939
35.05405405,0.213378906,0.479003906,1.496337891,2.27355957,2.456665039,-9.502410889
35.08108108,0.864257813,-0.450683594,0.593017578,0.709533691,7.835388184,-21.45385742
35.10810811,0.596679688,0.204345703,1.737548828,-3.601074219,5.531311035,11.18469238
35.13513514,0.610351563,-0.150634766,1.573730469,2.6512146,2.841949463,-3.757476807
35.16216216,0.254394531,-0.323486328,1.546386719,2.27355957,12.44354248,3.524780273
35.18918919,0.073974609,-0.182861328,1.673583984,-0.465393066,18.9743042,7.740020752
35.21621622,-0.233642578,0.147460938,0.532714844,-13.17214966,0.152587891,-0.308990479
35.24324324,-0.343261719,-0.341552734,1.017333984,-11.4364624,-2.918243408,0.076293945
35.27027027,-0.224609375,-0.081054688,1.210205078,-11.4364624,-5.60760498,-3.757476807
35.2972973,0.231201172,-0.334228516,1.089355469,-16.52908325,-13.6756897,1.796722412
35.32432432,0.624267578,-0.149902344,1.287109375,-11.4364624,-18.66912842,-6.053924561
35.35135135,0.741210938,-0.942138672,1.686279297,-25.5355835,13.59558105,6.587982178
35.37837838,0.183349609,0.028320313,0.983154297,-5.558013916,-1.384735107,7.911682129
35.40540541,0.30078125,-0.266845703,1.188964844,-6.732940674,-11.75308228,-2.742767334
35.43243243,0.102050781,-0.250488281,1.584716797,-5.950927734,-10.6010437,-2.223968506
35.45945946,-0.038818359,-0.192138672,1.128173828,-0.858306885,-7.148742676,-6.439208984
35.48648649,0.372558594,-0.087402344,0.689697266,-2.033233643,-7.530212402,3.90625
35.51351351,-0.035644531,-0.236083984,0.887207031,-2.426147461,1.304626465,-2.223968506
35.54054054,-0.095458984,0.296875,0.908447266,-5.367279053,-4.07409668,0.076293945
35.56756757,-0.105957031,0.380126953,1.038818359,-2.426147461,-4.84085083,0.843048096
35.59459459,0.008300781,-0.865234375,1.014160156,2.666473389,-5.081176758,-3.757476807
35.62162162,0.189453125,-0.860351563,0.692871094,6.191253662,13.98086548,5.500793457
35.64864865,0.365722656,-0.044433594,1.0703125,-4.383087158,11.67678833,-3.372192383
35.67567568,0.000244141,-1.708984375,1.087646484,8.541107178,3.227233887,13.48495483
35.7027027,0.328857422,0.184082031,1.173828125,7.759094238,13.21029663,-2.471923828
35.72972973,-0.474853516,-1.561279297,1.540771484,5.016326904,29.72793579,20.00045776
35.75675676,1.102050781,0.052490234,0.774658203,3.841400146,11.67678833,-0.690460205
35.78378378,0.024414063,-0.297119141,1.423828125,-5.37109375,-1.384735107,-12.56942749
35.81081081,0.561279297,-0.483642578,0.461425781,9.326934814,13.98086548,16.55197144
35.83783784,0.495117188,-0.493164063,0.484619141,-10.65063477,19.35577393,-12.18414307
35.86486486,-0.150634766,-0.377197266,0.600830078,-14.56451416,33.18405151,11.95144653
35.89189189,-0.275634766,-0.744873047,1.174072266,-7.911682129,10.90621948,-6.820678711
35.91891892,-0.185546875,-0.566894531,1.032714844,-9.868621826,-2.151489258,7.740020752
35.94594595,-0.331787109,-0.171875,1.795898438,-4.776000977,4.409790039,13.86642456
35.97297297,-0.488769531,1.235351563,1.090332031,-25.14648438,15.51818848,-15.63262939
36,-0.899902344,-0.503173828,0.994628906,2.666473389,-10.21957397,13.64898682
36.02702703,-0.187988281,-0.271484375,1.129638672,-3.402709961,5.531311035,4.291534424
36.05405405,-0.209472656,-0.890380859,1.17578125,2.27355957,-0.999450684,2.376556396
36.08108108,0.521972656,0.485351563,1.175292969,-1.251220703,-9.449005127,1.224517822
36.10810811,0.558105469,0.201660156,0.492919922,-5.966186523,18.58901978,-2.223968506
36.13513514,-1.146240234,0.180419922,1.025390625,7.36618042,4.280090332,6.206512451
36.16216216,0.014892578,0.043701172,1.229492188,-0.858306885,-12.52365112,10.80322266
36.18918919,-0.110351563,0.266113281,0.69921875,6.58416748,-18.28384399,-7.972717285
36.21621622,0.215332031,0.492919922,1.007080078,-3.601074219,0.953674316,-3.372192383
36.24324324,-0.062988281,-0.859619141,0.560791016,-1.644134521,-16.746521,6.587982178
36.27027027,0.273193359,0.641845703,0.996582031,-2.819061279,15.13290405,-13.71765137
36.2972973,-0.164550781,-0.136474609,1.215087891,-7.312774658,-12.52365112,-6.820678711
36.32432432,-0.226318359,-0.385498047,1.183105469,5.016326904,-12.52365112,-7.205963135
36.35135135,0.501953125,0.547363281,1.374511719,4.234313965,1.304626465,1.609802246
36.37837838,-0.510986328,0.248535156,2.065917969,5.409240723,-22.89199829,16.93344116
36.40540541,1.214355469,-0.494873047,0.068847656,13.63372803,4.489898682,-20.2293396
36.43243243,-0.655273438,-0.970458984,0.796630859,20.86257935,-5.992889404,-3.757476807
36.45945946,0.546386719,1.222900391,0.484619141,-0.465393066,10.90621948,-6.820678711
36.48648649,-0.036621094,-0.455566406,1.857421875,21.86203003,-6.378173828,2.372741699
36.51351351,0.146972656,-0.2265625,1.564208984,15.2015686,2.071380615,-10.55526733
36.54054054,-0.022460938,-0.494873047,0.802490234,34.39712524,-0.999450684,-9.887695313
36.56756757,0.197998047,0.057128906,1.608886719,27.34375,0.919342041,-14.48440552
36.59459459,0.573242188,0.142333984,1.059326172,35.572052,-2.151489258,-2.185821533
36.62162162,0.14453125,-0.520263672,-0.178466797,33.22219849,-21.74377441,-26.74484253
36.64864865,0.057128906,1.5859375,0.559326172,12.06970215,-15.2130127,3.90625
36.67567568,0.417724609,2.816894531,-0.452636719,8.934020996,5.531311035,-14.86587524
36.7027027,-1.2890625,-1.868164063,2.291015625,-15.35415649,-54.38995361,4.291534424
36.72972973,-0.046142578,0.351806641,1.077392578,6.58416748,-20.97320557,4.291534424
36.75675676,0.394775391,-0.36328125,1.143798828,-2.010345459,-26.73339844,10.42175293
36.78378378,0.416992188,-0.310302734,0.345703125,3.059387207,-20.20263672,10.42175293
36.81081081,0.921630859,-0.471191406,-0.034423828,-20.44677734,10.90621948,16.16668701
36.83783784,0.153320313,0.262695313,0.876953125,-9.868621826,11.46697998,13.10348511
36.86486486,0.315673828,-0.398925781,0.785400391,-12.61138916,-2.918243408,6.973266602
36.89189189,0.421875,0.533203125,0.905273438,-27.49633789,6.298065186,-0.419616699
36.91891892,0.366210938,-0.340087891,1.475341797,-18.48602295,-12.90512085,-1.071929932
36.94594595,-0.260742188,-0.397949219,0.834960938,-16.92199707,-20.58792114,-1.071929932
36.97297297,0.229248047,-0.139160156,1.375732422,-13.3934021,-3.303527832,-10.26916504
37,-0.098388672,-0.046875,1.440429688,-12.61138916,5.531311035,11.18469238
37.02702703,-0.16796875,0.131103516,1.208251953,-0.858306885,1.304626465,-12.56942749
37.05405405,-0.342773438,0.312744141,0.922119141,11.28387451,0.583648682,3.524780273
37.08108108,0.390380859,-1.079833984,0.524414063,26.95083618,-31.72683716,-20.2293396
37.10810811,0.418457031,-0.220947266,0.763916016,16.37649536,-4.863739014,21.53015137
37.13513514,-0.00390625,-0.128173828,1.038574219,3.059387207,2.071380615,-0.690460205
37.16216216,0.065673828,0.236328125,0.962158203,-0.858306885,-6.759643555,3.90625
37.18918919,-0.112060547,0.78125,1.984130859,1.884460449,-10.6010437,5.844116211
37.21621622,0.522460938,-1.219482422,0.753173828,-8.296966553,-5.60760498,-13.71765137
37.24324324,-0.227050781,-0.398193359,1.392333984,-8.30078125,2.456665039,3.524780273
37.27027027,0.106201172,-0.243164063,1.273193359,-4.383087158,-16.746521,-1.838684082
37.2972973,0.348144531,-0.431152344,1.093994141,-10.65063477,0.152587891,-9.502410889
37.32432432,-0.124023438,0.08984375,1.048095703,-8.30078125,9.372711182,8.502960205
37.35135135,0.656738281,-0.838623047,0.878417969,5.401611328,-1.766204834,15.78521729
37.37837838,-0.039550781,-0.563232422,1.548828125,-6.732940674,-5.992889404,8.121490479
37.40540541,0.352294922,-0.403808594,1.477783203,-1.644134521,10.82992554,-6.053924561
37.43243243,0.101318359,-0.927001953,1.927246094,9.326934814,23.9982605,-12.95089722
37.45945946,0.244384766,0.879150391,0.537109375,6.191253662,3.227233887,11.56997681
